Species,Subject,Date,Time,Phase,Block,Trial,ConfigID,Correct1,Correct2,Correct3,Response1,Response2,Response3,RT1,RT2,RT3,ACC1,ACC2,ACC3,Score,Score2,Condition
Human,EZ_06,2017-09-26,13:25:22,Exp,1,1,7,TopRight,TopLeft,BottomRight,TopRight,TopLeft,BottomRight,1093,886,1530,1,1,1,1,0,BASE
Human,EZ_06,2017-09-26,13:25:28,Exp,1,2,16,BottomLeft,BottomRight,TopLeft,BottomLeft,BottomRight,TopLeft,1107,778,963,1,1,1,1,0,BASE
Human,EZ_06,2017-09-26,13:25:35,Exp,1,3,5,TopLeft,BottomRight,BottomLeft,TopLeft,BottomRight,BottomLeft,1260,951,1253,1,1,1,1,0,BASE
Human,EZ_06,2017-09-26,13:25:42,Exp,1,4,0,TopLeft,TopRight,BottomLeft,TopLeft,TopRight,BottomLeft,1069,954,1364,1,1,1,1,0,PROBE
Human,EZ_06,2017-09-26,13:25:47,Exp,1,5,2,TopLeft,BottomLeft,TopRight,TopLeft,BottomLeft,TopRight,901,864,813,1,1,1,1,0,BASE
Human,EZ_06,2017-09-26,13:25:53,Exp,1,6,13,BottomLeft,TopLeft,BottomRight,BottomLeft,TopLeft,BottomRight,1089,746,1189,1,1,1,1,0,BASE
Human,EZ_06,2017-09-26,13:25:59,Exp,1,7,23,BottomRight,BottomLeft,TopRight,BottomRight,BottomLeft,TopRight,1021,727,759,1,1,1,1,0,BASE
Human,EZ_06,2017-09-26,13:26:04,Exp,1,8,18,BottomRight,TopLeft,TopRight,BottomRight,TopLeft,TopRight,1023,830,729,1,1,1,1,0,BASE
Human,EZ_06,2017-09-26,13:26:10,Exp,1,9,21,BottomRight,TopRight,BottomLeft,BottomRight,TopRight,BottomLeft,847,727,1207,1,1,1,1,0,PROBE
Human,EZ_06,2017-09-26,13:26:16,Exp,1,10,19,BottomRight,TopLeft,BottomLeft,BottomRight,TopLeft,BottomLeft,1067,882,1188,1,1,1,1,0,PROBE
Human,EZ_06,2017-09-26,13:26:22,Exp,1,11,12,BottomLeft,TopLeft,TopRight,BottomLeft,TopLeft,TopRight,918,694,743,1,1,1,1,0,BASE
Human,EZ_06,2017-09-26,13:26:28,Exp,1,12,15,BottomLeft,TopRight,BottomRight,BottomLeft,TopRight,BottomRight,914,759,1122,1,1,1,1,0,PROBE
Human,EZ_06,2017-09-26,13:26:34,Exp,1,13,11,TopRight,BottomRight,BottomLeft,TopRight,BottomRight,BottomLeft,916,781,1344,1,1,1,1,0,PROBE
Human,EZ_06,2017-09-26,13:26:41,Exp,1,14,14,BottomLeft,TopRight,TopLeft,BottomLeft,TopRight,TopLeft,1459,794,1064,1,1,1,1,0,PROBE
Human,EZ_06,2017-09-26,13:26:47,Exp,1,15,9,TopRight,BottomLeft,BottomRight,TopRight,BottomLeft,BottomRight,1305,936,1320,1,1,1,1,0,BASE
Human,EZ_06,2017-09-26,13:26:53,Exp,1,16,20,BottomRight,TopRight,TopLeft,BottomRight,TopRight,TopLeft,898,733,780,1,1,1,1,0,BASE
Human,EZ_06,2017-09-26,13:26:58,Exp,1,17,6,TopRight,TopLeft,BottomLeft,TopRight,TopLeft,BottomLeft,863,728,1105,1,1,1,1,0,PROBE
Human,EZ_06,2017-09-26,13:27:04,Exp,1,18,22,BottomRight,BottomLeft,TopLeft,BottomRight,BottomLeft,TopLeft,932,712,809,1,1,1,1,0,BASE
Human,EZ_06,2017-09-26,13:27:12,Exp,1,19,1,TopLeft,TopRight,BottomRight,TopLeft,TopRight,BottomRight,1154,1959,1185,1,1,1,1,0,PROBE
Human,EZ_06,2017-09-26,13:27:17,Exp,1,20,3,TopLeft,BottomLeft,BottomRight,TopLeft,BottomLeft,BottomRight,795,709,1205,1,1,1,1,0,PROBE
Human,EZ_06,2017-09-26,13:27:23,Exp,1,21,8,TopRight,BottomLeft,TopLeft,TopRight,BottomLeft,TopLeft,779,814,859,1,1,1,1,0,PROBE
Human,EZ_06,2017-09-26,13:27:30,Exp,1,22,10,TopRight,BottomRight,TopLeft,TopRight,BottomRight,TopLeft,1975,847,879,1,1,1,1,0,BASE
Human,EZ_06,2017-09-26,13:27:35,Exp,1,23,4,TopLeft,BottomRight,TopRight,TopLeft,BottomRight,TopRight,1070,749,694,1,1,1,1,0,PROBE
Human,EZ_06,2017-09-26,13:27:41,Exp,1,24,17,BottomLeft,BottomRight,TopRight,BottomLeft,BottomRight,TopRight,827,932,791,1,1,1,1,0,PROBE
Human,EZ_06,2017-09-26,13:27:47,Exp,1,25,2,TopLeft,BottomLeft,TopRight,TopLeft,BottomLeft,TopRight,1030,761,812,1,1,1,1,0,PROBE
Human,EZ_06,2017-09-26,13:27:52,Exp,1,26,3,TopLeft,BottomLeft,BottomRight,TopLeft,BottomLeft,BottomRight,899,762,1169,1,1,1,1,0,PROBE
Human,EZ_06,2017-09-26,13:27:58,Exp,1,27,1,TopLeft,TopRight,BottomRight,TopLeft,TopRight,BottomRight,884,764,1240,1,1,1,1,0,BASE
Human,EZ_06,2017-09-26,13:28:04,Exp,1,28,10,TopRight,BottomRight,TopLeft,TopRight,BottomRight,TopLeft,846,812,826,1,1,1,1,0,PROBE
Human,EZ_06,2017-09-26,13:28:09,Exp,1,29,20,BottomRight,TopRight,TopLeft,BottomRight,TopRight,TopLeft,969,765,794,1,1,1,1,0,BASE
Human,EZ_06,2017-09-26,13:28:15,Exp,1,30,15,BottomLeft,TopRight,BottomRight,BottomLeft,TopRight,BottomRight,1101,711,1206,1,1,1,1,0,PROBE
Human,EZ_06,2017-09-26,13:28:21,Exp,1,31,4,TopLeft,BottomRight,TopRight,TopLeft,BottomRight,TopRight,747,953,782,1,1,1,1,0,BASE
Human,EZ_06,2017-09-26,13:28:27,Exp,1,32,5,TopLeft,BottomRight,BottomLeft,TopLeft,BottomRight,BottomLeft,779,781,1206,1,1,1,1,0,BASE
Human,EZ_06,2017-09-26,13:28:32,Exp,1,33,16,BottomLeft,BottomRight,TopLeft,BottomLeft,BottomRight,TopLeft,1394,796,759,1,1,1,1,0,PROBE
Human,EZ_06,2017-09-26,13:28:39,Exp,1,34,11,TopRight,BottomRight,BottomLeft,TopRight,BottomRight,BottomLeft,832,844,1263,1,1,1,1,0,BASE
Human,EZ_06,2017-09-26,13:28:44,Exp,1,35,17,BottomLeft,BottomRight,TopRight,BottomLeft,BottomRight,TopRight,1050,796,812,1,1,1,1,0,PROBE
Human,EZ_06,2017-09-26,13:28:50,Exp,1,36,23,BottomRight,BottomLeft,TopRight,BottomRight,BottomLeft,TopRight,779,815,865,1,1,1,1,0,BASE
Human,EZ_06,2017-09-26,13:28:56,Exp,1,37,14,BottomLeft,TopRight,TopLeft,BottomLeft,TopRight,TopLeft,1086,777,946,1,1,1,1,0,PROBE
Human,EZ_06,2017-09-26,13:29:03,Exp,1,38,7,TopRight,TopLeft,BottomRight,TopRight,TopLeft,BottomRight,1224,800,1274,1,1,1,1,0,BASE
Human,EZ_06,2017-09-26,13:29:08,Exp,1,39,18,BottomRight,TopLeft,TopRight,BottomRight,TopLeft,TopRight,885,782,829,1,1,1,1,0,BASE
Human,EZ_06,2017-09-26,13:29:14,Exp,1,40,22,BottomRight,BottomLeft,TopLeft,BottomRight,BottomLeft,TopLeft,1017,814,838,1,1,1,1,0,PROBE
Human,EZ_06,2017-09-26,13:29:20,Exp,1,41,8,TopRight,BottomLeft,TopLeft,TopRight,BottomLeft,TopLeft,976,793,794,1,1,1,1,0,PROBE
Human,EZ_06,2017-09-26,13:29:27,Exp,1,42,13,BottomLeft,TopLeft,BottomRight,BottomLeft,TopLeft,BottomRight,900,745,1733,1,1,1,1,0,PROBE
Human,EZ_06,2017-09-26,13:29:33,Exp,1,43,21,BottomRight,TopRight,BottomLeft,BottomRight,TopRight,BottomLeft,1018,930,1224,1,1,1,1,0,PROBE
Human,EZ_06,2017-09-26,13:29:41,Exp,1,44,19,BottomRight,TopLeft,BottomLeft,BottomRight,TopLeft,BottomLeft,952,797,1269,1,1,1,1,0,BASE
Human,EZ_06,2017-09-26,13:29:46,Exp,1,45,12,BottomLeft,TopLeft,TopRight,BottomLeft,TopLeft,TopRight,849,800,911,1,1,1,1,0,BASE
Human,EZ_06,2017-09-26,13:29:52,Exp,1,46,0,TopLeft,TopRight,BottomLeft,TopLeft,TopRight,BottomLeft,968,763,1309,1,1,1,1,0,BASE
Human,EZ_06,2017-09-26,13:29:59,Exp,1,47,6,TopRight,TopLeft,BottomLeft,TopRight,TopLeft,BottomLeft,1036,865,1392,1,1,1,1,0,PROBE
Human,EZ_06,2017-09-26,13:30:05,Exp,1,48,9,TopRight,BottomLeft,BottomRight,TopRight,BottomLeft,BottomRight,883,829,1837,1,1,1,1,0,BASE
Human,EZ_06,2017-09-26,13:30:13,Exp,2,1,14,BottomLeft,TopRight,TopLeft,BottomLeft,TopRight,TopLeft,1088,849,763,1,1,1,1,0,BASE
Human,EZ_06,2017-09-26,13:30:18,Exp,2,2,2,TopLeft,BottomLeft,TopRight,TopLeft,BottomLeft,TopRight,999,782,912,1,1,1,1,0,BASE
Human,EZ_06,2017-09-26,13:30:24,Exp,2,3,0,TopLeft,TopRight,BottomLeft,TopLeft,TopRight,BottomLeft,917,891,1190,1,1,1,1,0,BASE
Human,EZ_06,2017-09-26,13:30:30,Exp,2,4,4,TopLeft,BottomRight,TopRight,TopLeft,BottomRight,TopRight,849,812,756,1,1,1,1,0,BASE
Human,EZ_06,2017-09-26,13:30:36,Exp,2,5,9,TopRight,BottomLeft,BottomRight,TopRight,BottomLeft,BottomRight,1064,828,1173,1,1,1,1,0,PROBE
Human,EZ_06,2017-09-26,13:30:42,Exp,2,6,19,BottomRight,TopLeft,BottomLeft,BottomRight,TopLeft,BottomLeft,864,729,1254,1,1,1,1,0,PROBE
Human,EZ_06,2017-09-26,13:30:48,Exp,2,7,17,BottomLeft,BottomRight,TopRight,BottomLeft,BottomRight,TopRight,883,781,812,1,1,1,1,0,PROBE
Human,EZ_06,2017-09-26,13:30:54,Exp,2,8,1,TopLeft,TopRight,BottomRight,TopLeft,TopRight,BottomRight,950,777,1122,1,1,1,1,0,BASE
Human,EZ_06,2017-09-26,13:30:59,Exp,2,9,16,BottomLeft,BottomRight,TopLeft,BottomLeft,BottomRight,TopLeft,815,762,610,1,1,1,1,0,BASE
Human,EZ_06,2017-09-26,13:31:05,Exp,2,10,10,TopRight,BottomRight,TopLeft,TopRight,BottomRight,TopLeft,1100,726,742,1,1,1,1,0,PROBE
Human,EZ_06,2017-09-26,13:31:11,Exp,2,11,12,BottomLeft,TopLeft,TopRight,BottomLeft,TopLeft,TopRight,815,678,1442,1,1,1,1,0,BASE
Human,EZ_06,2017-09-26,13:31:19,Exp,2,12,21,BottomRight,TopRight,BottomLeft,BottomRight,TopRight,BottomLeft,1134,780,1119,1,1,1,1,0,PROBE
Human,EZ_06,2017-09-26,13:31:25,Exp,2,13,5,TopLeft,BottomRight,BottomLeft,TopLeft,BottomRight,BottomLeft,1151,798,1255,1,1,1,1,0,PROBE
Human,EZ_06,2017-09-26,13:31:31,Exp,2,14,20,BottomRight,TopRight,TopLeft,BottomRight,TopRight,TopLeft,848,763,1172,1,1,1,1,0,BASE
Human,EZ_06,2017-09-26,13:31:37,Exp,2,15,7,TopRight,TopLeft,BottomRight,TopRight,TopLeft,BottomRight,829,777,1261,1,1,1,1,0,PROBE
Human,EZ_06,2017-09-26,13:31:44,Exp,2,16,22,BottomRight,BottomLeft,TopLeft,BottomRight,BottomLeft,TopLeft,864,1423,862,1,1,1,1,0,PROBE
Human,EZ_06,2017-09-26,13:31:50,Exp,2,17,18,BottomRight,TopLeft,TopRight,BottomRight,TopLeft,TopRight,1021,953,1277,1,1,1,1,0,BASE
Human,EZ_06,2017-09-26,13:31:56,Exp,2,18,8,TopRight,BottomLeft,TopLeft,TopRight,BottomLeft,TopLeft,1066,1103,794,1,1,1,1,0,PROBE
Human,EZ_06,2017-09-26,13:32:03,Exp,2,19,11,TopRight,BottomRight,BottomLeft,TopRight,BottomRight,BottomLeft,1020,1293,1389,1,1,1,1,0,BASE
Human,EZ_06,2017-09-26,13:32:09,Exp,2,20,23,BottomRight,BottomLeft,TopRight,BottomRight,BottomLeft,TopRight,982,774,930,1,1,1,1,0,PROBE
Human,EZ_06,2017-09-26,13:32:15,Exp,2,21,15,BottomLeft,TopRight,BottomRight,BottomLeft,TopRight,BottomRight,1012,882,1204,1,1,1,1,0,PROBE
Human,EZ_06,2017-09-26,13:32:22,Exp,2,22,3,TopLeft,BottomLeft,BottomRight,TopLeft,BottomLeft,BottomRight,1002,830,1345,1,1,1,1,0,BASE
Human,EZ_06,2017-09-26,13:32:28,Exp,2,23,13,BottomLeft,TopLeft,BottomRight,BottomLeft,TopLeft,BottomRight,896,883,1373,1,1,1,1,0,BASE
Human,EZ_06,2017-09-26,13:32:37,Exp,2,24,6,TopRight,TopLeft,BottomLeft,TopRight,TopLeft,BottomLeft,1140,964,1225,1,1,1,1,0,PROBE
Human,EZ_06,2017-09-26,13:32:43,Exp,2,25,17,BottomLeft,BottomRight,TopRight,BottomLeft,BottomRight,TopRight,967,1205,958,1,1,1,1,0,PROBE
Human,EZ_06,2017-09-26,13:32:49,Exp,2,26,23,BottomRight,BottomLeft,TopRight,BottomRight,BottomLeft,TopRight,949,747,998,1,1,1,1,0,BASE
Human,EZ_06,2017-09-26,13:32:56,Exp,2,27,6,TopRight,TopLeft,BottomLeft,TopRight,TopLeft,BottomLeft,1531,1172,1291,1,1,1,1,0,PROBE
Human,EZ_06,2017-09-26,13:33:02,Exp,2,28,8,TopRight,BottomLeft,TopLeft,TopRight,BottomLeft,TopLeft,931,877,864,1,1,1,1,0,PROBE
Human,EZ_06,2017-09-26,13:33:08,Exp,2,29,14,BottomLeft,TopRight,TopLeft,BottomLeft,TopRight,TopLeft,1082,868,827,1,1,1,1,0,BASE
Human,EZ_06,2017-09-26,13:33:14,Exp,2,30,15,BottomLeft,TopRight,BottomRight,BottomLeft,TopRight,BottomRight,1022,746,1342,1,1,1,1,0,BASE
Human,EZ_06,2017-09-26,13:33:21,Exp,2,31,13,BottomLeft,TopLeft,BottomRight,BottomLeft,TopLeft,BottomRight,935,778,1475,1,1,1,1,0,BASE
Human,EZ_06,2017-09-26,13:33:26,Exp,2,32,20,BottomRight,TopRight,TopLeft,BottomRight,TopRight,TopLeft,1015,727,862,1,1,1,1,0,PROBE
Human,EZ_06,2017-09-26,13:33:40,Exp,2,33,19,BottomRight,TopLeft,BottomLeft,BottomRight,TopLeft,BottomLeft,2927,2077,2806,1,1,1,1,0,PROBE
Human,EZ_06,2017-09-26,13:33:47,Exp,2,34,0,TopLeft,TopRight,BottomLeft,TopLeft,TopRight,BottomLeft,1373,658,866,1,1,1,1,0,PROBE
Human,EZ_06,2017-09-26,13:33:52,Exp,2,35,9,TopRight,BottomLeft,BottomRight,TopRight,BottomLeft,BottomRight,693,797,623,1,1,1,1,0,PROBE
Human,EZ_06,2017-09-26,13:33:58,Exp,2,36,12,BottomLeft,TopLeft,TopRight,BottomLeft,TopLeft,TopRight,710,966,518,1,1,1,1,0,PROBE
Human,EZ_06,2017-09-26,13:34:01,Exp,2,37,22,BottomRight,BottomLeft,TopLeft,TopRight,NA,NA,542,NA,NA,0,NA,NA,0,0,BASE
Human,EZ_06,2017-09-26,13:34:12,Exp,2,38,2,TopLeft,BottomLeft,TopRight,TopLeft,BottomLeft,TopRight,1393,3001,1033,1,1,1,1,0,PROBE
Human,EZ_06,2017-09-26,13:34:19,Exp,2,39,3,TopLeft,BottomLeft,BottomRight,TopLeft,BottomLeft,BottomRight,1019,1874,1033,1,1,1,1,0,BASE
Human,EZ_06,2017-09-26,13:34:25,Exp,2,40,10,TopRight,BottomRight,TopLeft,TopRight,BottomRight,TopLeft,765,848,1002,1,1,1,1,0,BASE
Human,EZ_06,2017-09-26,13:34:32,Exp,2,41,21,BottomRight,TopRight,BottomLeft,BottomRight,TopRight,BottomLeft,899,829,1967,1,1,1,1,0,BASE
Human,EZ_06,2017-09-26,13:34:38,Exp,2,42,7,TopRight,TopLeft,BottomRight,TopRight,TopLeft,BottomRight,746,867,742,1,1,1,1,0,BASE
Human,EZ_06,2017-09-26,13:34:44,Exp,2,43,18,BottomRight,TopLeft,TopRight,BottomRight,TopLeft,TopRight,745,457,1427,1,1,1,1,0,BASE
Human,EZ_06,2017-09-26,13:34:51,Exp,2,44,4,TopLeft,BottomRight,TopRight,TopLeft,BottomRight,TopRight,965,467,1836,1,1,1,1,0,PROBE
Human,EZ_06,2017-09-26,13:34:57,Exp,2,45,16,BottomLeft,BottomRight,TopLeft,BottomLeft,BottomRight,TopLeft,827,438,1000,1,1,1,1,0,PROBE
Human,EZ_06,2017-09-26,13:35:03,Exp,2,46,1,TopLeft,TopRight,BottomRight,TopLeft,TopRight,BottomRight,746,473,1444,1,1,1,1,0,BASE
Human,EZ_06,2017-09-26,13:35:08,Exp,2,47,11,TopRight,BottomRight,BottomLeft,TopRight,BottomRight,BottomLeft,828,404,781,1,1,1,1,0,PROBE
Human,EZ_06,2017-09-26,13:35:14,Exp,2,48,5,TopLeft,BottomRight,BottomLeft,TopLeft,BottomRight,BottomLeft,691,403,1307,1,1,1,1,0,BASE
Human,EZ_06,2017-09-26,13:35:19,Exp,3,1,10,TopRight,BottomRight,TopLeft,TopRight,BottomRight,TopLeft,664,402,842,1,1,1,1,0,BASE
Human,EZ_06,2017-09-26,13:35:26,Exp,3,2,13,BottomLeft,TopLeft,BottomRight,BottomLeft,TopLeft,BottomRight,795,2331,640,1,1,1,1,0,PROBE
Human,EZ_06,2017-09-26,13:35:32,Exp,3,3,20,BottomRight,TopRight,TopLeft,BottomRight,TopRight,TopLeft,612,1137,846,1,1,1,1,0,BASE
Human,EZ_06,2017-09-26,13:35:38,Exp,3,4,19,BottomRight,TopLeft,BottomLeft,BottomRight,TopLeft,BottomLeft,1070,895,679,1,1,1,1,0,PROBE
Human,EZ_06,2017-09-26,13:35:45,Exp,3,5,1,TopLeft,TopRight,BottomRight,TopLeft,TopRight,BottomRight,710,2241,679,1,1,1,1,0,PROBE
Human,EZ_06,2017-09-26,13:35:50,Exp,3,6,3,TopLeft,BottomLeft,BottomRight,TopLeft,BottomLeft,BottomRight,728,406,640,1,1,1,1,0,BASE
Human,EZ_06,2017-09-26,13:35:56,Exp,3,7,11,TopRight,BottomRight,BottomLeft,TopRight,BottomRight,BottomLeft,866,556,644,1,1,1,1,0,BASE
Human,EZ_06,2017-09-26,13:36:02,Exp,3,8,21,BottomRight,TopRight,BottomLeft,BottomRight,TopRight,BottomLeft,559,1036,1186,1,1,1,1,0,BASE
Human,EZ_06,2017-09-26,13:36:08,Exp,3,9,16,BottomLeft,BottomRight,TopLeft,BottomLeft,BottomRight,TopLeft,1744,398,572,1,1,1,1,0,PROBE
Human,EZ_06,2017-09-26,13:36:14,Exp,3,10,12,BottomLeft,TopLeft,TopRight,BottomLeft,TopLeft,TopRight,943,1921,576,1,1,1,1,0,PROBE
Human,EZ_06,2017-09-26,13:36:20,Exp,3,11,7,TopRight,TopLeft,BottomRight,TopRight,TopLeft,BottomRight,643,778,625,1,1,1,1,0,PROBE
Human,EZ_06,2017-09-26,13:36:25,Exp,3,12,2,TopLeft,BottomLeft,TopRight,TopLeft,BottomLeft,TopRight,680,406,1074,1,1,1,1,0,BASE
Human,EZ_06,2017-09-26,13:36:30,Exp,3,13,8,TopRight,BottomLeft,TopLeft,TopRight,BottomLeft,TopLeft,521,404,1226,1,1,1,1,0,BASE
Human,EZ_06,2017-09-26,13:36:36,Exp,3,14,4,TopLeft,BottomRight,TopRight,TopLeft,BottomRight,TopRight,677,419,690,1,1,1,1,0,PROBE
Human,EZ_06,2017-09-26,13:36:42,Exp,3,15,17,BottomLeft,BottomRight,TopRight,BottomLeft,BottomRight,TopRight,969,1324,814,1,1,1,1,0,BASE
Human,EZ_06,2017-09-26,13:36:48,Exp,3,16,0,TopLeft,TopRight,BottomLeft,TopLeft,TopRight,BottomLeft,1342,405,712,1,1,1,1,0,BASE
Human,EZ_06,2017-09-26,13:36:53,Exp,3,17,9,TopRight,BottomLeft,BottomRight,TopRight,BottomLeft,BottomRight,593,404,723,1,1,1,1,0,BASE
Human,EZ_06,2017-09-26,13:36:58,Exp,3,18,22,BottomRight,BottomLeft,TopLeft,BottomRight,BottomLeft,TopLeft,405,491,948,1,1,1,1,0,BASE
Human,EZ_06,2017-09-26,13:37:03,Exp,3,19,5,TopLeft,BottomRight,BottomLeft,TopLeft,BottomRight,BottomLeft,641,404,629,1,1,1,1,0,PROBE
Human,EZ_06,2017-09-26,13:37:10,Exp,3,20,6,TopRight,TopLeft,BottomLeft,TopRight,TopLeft,BottomLeft,1343,401,643,1,1,1,1,0,PROBE
Human,EZ_06,2017-09-26,13:37:15,Exp,3,21,23,BottomRight,BottomLeft,TopRight,BottomRight,BottomLeft,TopRight,625,1167,537,1,1,1,1,0,PROBE
Human,EZ_06,2017-09-26,13:37:20,Exp,3,22,14,BottomLeft,TopRight,TopLeft,BottomLeft,TopRight,TopLeft,713,405,758,1,1,1,1,0,BASE
Human,EZ_06,2017-09-26,13:37:25,Exp,3,23,15,BottomLeft,TopRight,BottomRight,BottomLeft,TopRight,BottomRight,440,743,628,1,1,1,1,0,PROBE
Human,EZ_06,2017-09-26,13:37:30,Exp,3,24,18,BottomRight,TopLeft,TopRight,BottomRight,TopLeft,TopRight,797,403,607,1,1,1,1,0,PROBE
Human,EZ_06,2017-09-26,13:37:35,Exp,3,25,21,BottomRight,TopRight,BottomLeft,BottomRight,TopRight,BottomLeft,470,711,678,1,1,1,1,0,BASE
Human,EZ_06,2017-09-26,13:37:40,Exp,3,26,12,BottomLeft,TopLeft,TopRight,BottomLeft,TopLeft,TopRight,558,830,575,1,1,1,1,0,PROBE
Human,EZ_06,2017-09-26,13:37:46,Exp,3,27,10,TopRight,BottomRight,TopLeft,TopRight,BottomRight,TopLeft,540,423,1191,1,1,1,1,0,BASE
Human,EZ_06,2017-09-26,13:37:51,Exp,3,28,20,BottomRight,TopRight,TopLeft,BottomRight,TopRight,TopLeft,508,1003,780,1,1,1,1,0,BASE
Human,EZ_06,2017-09-26,13:37:57,Exp,3,29,23,BottomRight,BottomLeft,TopRight,BottomRight,BottomLeft,TopRight,1328,399,576,1,1,1,1,0,PROBE
Human,EZ_06,2017-09-26,13:38:02,Exp,3,30,2,TopLeft,BottomLeft,TopRight,TopLeft,BottomLeft,TopRight,680,575,554,1,1,1,1,0,BASE
Human,EZ_06,2017-09-26,13:38:07,Exp,3,31,14,BottomLeft,TopRight,TopLeft,BottomLeft,TopRight,TopLeft,539,403,593,1,1,1,1,0,BASE
Human,EZ_06,2017-09-26,13:38:13,Exp,3,32,22,BottomRight,BottomLeft,TopLeft,BottomRight,BottomLeft,TopLeft,502,401,1151,1,1,1,1,0,PROBE
Human,EZ_06,2017-09-26,13:38:18,Exp,3,33,17,BottomLeft,BottomRight,TopRight,BottomLeft,BottomRight,TopRight,474,657,693,1,1,1,1,0,BASE
Human,EZ_06,2017-09-26,13:38:22,Exp,3,34,0,TopLeft,TopRight,BottomLeft,TopLeft,TopRight,BottomLeft,458,437,626,1,1,1,1,0,BASE
Human,EZ_06,2017-09-26,13:38:27,Exp,3,35,15,BottomLeft,TopRight,BottomRight,BottomLeft,TopRight,BottomRight,439,404,829,1,1,1,1,0,PROBE
Human,EZ_06,2017-09-26,13:38:32,Exp,3,36,1,TopLeft,TopRight,BottomRight,TopLeft,TopRight,BottomRight,571,401,726,1,1,1,1,0,PROBE
Human,EZ_06,2017-09-26,13:38:40,Exp,3,37,16,BottomLeft,BottomRight,TopLeft,BottomLeft,BottomRight,TopLeft,626,1651,832,1,1,1,1,0,BASE
Human,EZ_06,2017-09-26,13:38:45,Exp,3,38,8,TopRight,BottomLeft,TopLeft,TopRight,BottomLeft,TopLeft,812,455,657,1,1,1,1,0,PROBE
Human,EZ_06,2017-09-26,13:38:50,Exp,3,39,18,BottomRight,TopLeft,TopRight,BottomRight,TopLeft,TopRight,575,1140,522,1,1,1,1,0,BASE
Human,EZ_06,2017-09-26,13:38:55,Exp,3,40,4,TopLeft,BottomRight,TopRight,TopLeft,BottomRight,TopRight,657,399,603,1,1,1,1,0,PROBE
Human,EZ_06,2017-09-26,13:39:00,Exp,3,41,6,TopRight,TopLeft,BottomLeft,TopRight,TopLeft,BottomLeft,491,403,696,1,1,1,1,0,BASE
Human,EZ_06,2017-09-26,13:39:05,Exp,3,42,3,TopLeft,BottomLeft,BottomRight,TopLeft,BottomLeft,BottomRight,509,400,892,1,1,1,1,0,BASE
Human,EZ_06,2017-09-26,13:39:10,Exp,3,43,11,TopRight,BottomRight,BottomLeft,TopRight,BottomRight,BottomLeft,402,400,626,1,1,1,1,0,PROBE
Human,EZ_06,2017-09-26,13:39:15,Exp,3,44,19,BottomRight,TopLeft,BottomLeft,BottomRight,TopLeft,BottomLeft,505,401,625,1,1,1,1,0,PROBE
Human,EZ_06,2017-09-26,13:39:21,Exp,3,45,13,BottomLeft,TopLeft,BottomRight,BottomLeft,TopLeft,BottomRight,611,1031,624,1,1,1,1,0,PROBE
Human,EZ_06,2017-09-26,13:39:25,Exp,3,46,7,TopRight,TopLeft,BottomRight,TopRight,TopLeft,BottomRight,527,403,625,1,1,1,1,0,BASE
Human,EZ_06,2017-09-26,13:39:31,Exp,3,47,9,TopRight,BottomLeft,BottomRight,TopRight,BottomLeft,BottomRight,609,1421,627,1,1,1,1,0,PROBE
Human,EZ_06,2017-09-26,13:39:36,Exp,3,48,5,TopLeft,BottomRight,BottomLeft,TopLeft,BottomRight,BottomLeft,627,418,623,1,1,1,1,0,PROBE
Human,EZ_06,2017-09-26,13:39:42,Exp,4,1,23,BottomRight,BottomLeft,TopRight,BottomRight,BottomLeft,TopRight,402,404,1447,1,1,1,1,0,BASE
Human,EZ_06,2017-09-26,13:39:46,Exp,4,2,8,TopRight,BottomLeft,TopLeft,TopRight,BottomLeft,TopLeft,437,406,895,1,1,1,1,0,BASE
Human,EZ_06,2017-09-26,13:39:51,Exp,4,3,21,BottomRight,TopRight,BottomLeft,BottomRight,TopRight,BottomLeft,420,403,624,1,1,1,1,0,PROBE
Human,EZ_06,2017-09-26,13:39:56,Exp,4,4,13,BottomLeft,TopLeft,BottomRight,BottomLeft,TopLeft,BottomRight,490,779,673,1,1,1,1,0,BASE
Human,EZ_06,2017-09-26,13:40:02,Exp,4,5,4,TopLeft,BottomRight,TopRight,TopLeft,BottomRight,TopRight,542,625,915,1,1,1,1,0,BASE
Human,EZ_06,2017-09-26,13:40:07,Exp,4,6,18,BottomRight,TopLeft,TopRight,BottomRight,TopLeft,TopRight,968,570,573,1,1,1,1,0,PROBE
Human,EZ_06,2017-09-26,13:40:12,Exp,4,7,9,TopRight,BottomLeft,BottomRight,TopRight,BottomLeft,BottomRight,400,503,658,1,1,1,1,0,PROBE
Human,EZ_06,2017-09-26,13:40:17,Exp,4,8,2,TopLeft,BottomLeft,TopRight,TopLeft,BottomLeft,TopRight,728,402,572,1,1,1,1,0,PROBE
Human,EZ_06,2017-09-26,13:40:22,Exp,4,9,11,TopRight,BottomRight,BottomLeft,TopRight,BottomRight,BottomLeft,505,761,628,1,1,1,1,0,PROBE
Human,EZ_06,2017-09-26,13:40:27,Exp,4,10,5,TopLeft,BottomRight,BottomLeft,TopLeft,BottomRight,BottomLeft,696,405,814,1,1,1,1,0,BASE
Human,EZ_06,2017-09-26,13:40:32,Exp,4,11,22,BottomRight,BottomLeft,TopLeft,BottomRight,BottomLeft,TopLeft,422,403,742,1,1,1,1,0,BASE
Human,EZ_06,2017-09-26,13:40:37,Exp,4,12,0,TopLeft,TopRight,BottomLeft,TopLeft,TopRight,BottomLeft,627,538,622,1,1,1,1,0,PROBE
Human,EZ_06,2017-09-26,13:40:43,Exp,4,13,19,BottomRight,TopLeft,BottomLeft,BottomRight,TopLeft,BottomLeft,829,642,800,1,1,1,1,0,BASE
Human,EZ_06,2017-09-26,13:40:48,Exp,4,14,6,TopRight,TopLeft,BottomLeft,TopRight,TopLeft,BottomLeft,1088,401,646,1,1,1,1,0,PROBE
Human,EZ_06,2017-09-26,13:40:53,Exp,4,15,1,TopLeft,TopRight,BottomRight,TopLeft,TopRight,BottomRight,543,404,674,1,1,1,1,0,BASE
Human,EZ_06,2017-09-26,13:41:00,Exp,4,16,16,BottomLeft,BottomRight,TopLeft,BottomLeft,BottomRight,TopLeft,638,1031,1016,1,1,1,1,0,PROBE
Human,EZ_06,2017-09-26,13:41:05,Exp,4,17,10,TopRight,BottomRight,TopLeft,TopRight,BottomRight,TopLeft,678,403,709,1,1,1,1,0,BASE
Human,EZ_06,2017-09-26,13:41:10,Exp,4,18,7,TopRight,TopLeft,BottomRight,TopRight,TopLeft,BottomRight,576,473,625,1,1,1,1,0,PROBE
Human,EZ_06,2017-09-26,13:41:15,Exp,4,19,17,BottomLeft,BottomRight,TopRight,BottomLeft,BottomRight,TopRight,644,404,589,1,1,1,1,0,BASE
Human,EZ_06,2017-09-26,13:41:20,Exp,4,20,12,BottomLeft,TopLeft,TopRight,BottomLeft,TopLeft,TopRight,642,457,572,1,1,1,1,0,PROBE
Human,EZ_06,2017-09-26,13:41:25,Exp,4,21,3,TopLeft,BottomLeft,BottomRight,TopLeft,BottomLeft,BottomRight,490,627,780,1,1,1,1,0,BASE
Human,EZ_06,2017-09-26,13:41:31,Exp,4,22,20,BottomRight,TopRight,TopLeft,BottomRight,TopRight,TopLeft,472,918,584,1,1,1,1,0,PROBE
Human,EZ_06,2017-09-26,13:41:35,Exp,4,23,14,BottomLeft,TopRight,TopLeft,BottomLeft,TopRight,TopLeft,474,405,694,1,1,1,1,0,BASE
Human,EZ_06,2017-09-26,13:41:40,Exp,4,24,15,BottomLeft,TopRight,BottomRight,BottomLeft,TopRight,BottomRight,419,398,859,1,1,1,1,0,PROBE
Human,EZ_06,2017-09-26,13:41:51,Exp,4,25,3,TopLeft,BottomLeft,BottomRight,TopLeft,BottomLeft,BottomRight,778,403,625,1,1,1,1,0,PROBE
Human,EZ_06,2017-09-26,13:41:57,Exp,4,26,19,BottomRight,TopLeft,BottomLeft,BottomRight,TopLeft,BottomLeft,828,527,673,1,1,1,1,0,BASE
Human,EZ_06,2017-09-26,13:42:01,Exp,4,27,9,TopRight,BottomLeft,BottomRight,TopRight,BottomLeft,BottomRight,540,400,629,1,1,1,1,0,PROBE
Human,EZ_06,2017-09-26,13:42:07,Exp,4,28,21,BottomRight,TopRight,BottomLeft,BottomRight,TopRight,BottomLeft,987,814,1056,1,1,1,1,0,BASE
Human,EZ_06,2017-09-26,13:42:13,Exp,4,29,5,TopLeft,BottomRight,BottomLeft,TopLeft,BottomRight,BottomLeft,812,816,625,1,1,1,1,0,PROBE
Human,EZ_06,2017-09-26,13:42:18,Exp,4,30,18,BottomRight,TopLeft,TopRight,BottomRight,TopLeft,TopRight,626,697,525,1,1,1,1,0,BASE
Human,EZ_06,2017-09-26,13:42:23,Exp,4,31,11,TopRight,BottomRight,BottomLeft,TopRight,BottomRight,BottomLeft,404,455,642,1,1,1,1,0,PROBE
Human,EZ_06,2017-09-26,13:42:28,Exp,4,32,12,BottomLeft,TopLeft,TopRight,BottomLeft,TopLeft,TopRight,475,402,590,1,1,1,1,0,BASE
Human,EZ_06,2017-09-26,13:42:33,Exp,4,33,14,BottomLeft,TopRight,TopLeft,BottomLeft,TopRight,TopLeft,457,406,610,1,1,1,1,0,BASE
Human,EZ_06,2017-09-26,13:42:38,Exp,4,34,0,TopLeft,TopRight,BottomLeft,TopLeft,TopRight,BottomLeft,693,423,676,1,1,1,1,0,BASE
Human,EZ_06,2017-09-26,13:42:44,Exp,4,35,22,BottomRight,BottomLeft,TopLeft,BottomRight,BottomLeft,TopLeft,538,401,2551,1,1,1,1,0,PROBE
Human,EZ_06,2017-09-26,13:42:49,Exp,4,36,17,BottomLeft,BottomRight,TopRight,BottomLeft,BottomRight,TopRight,472,397,883,1,1,1,1,0,PROBE
Human,EZ_06,2017-09-26,13:42:55,Exp,4,37,2,TopLeft,BottomLeft,TopRight,TopLeft,BottomLeft,TopRight,747,403,1016,1,1,1,1,0,BASE
Human,EZ_06,2017-09-26,13:43:02,Exp,4,38,6,TopRight,TopLeft,BottomLeft,TopRight,TopLeft,BottomLeft,743,1568,831,1,1,1,1,0,PROBE
Human,EZ_06,2017-09-26,13:43:07,Exp,4,39,4,TopLeft,BottomRight,TopRight,TopLeft,BottomRight,TopRight,561,401,1022,1,1,1,1,0,BASE
Human,EZ_06,2017-09-26,13:43:13,Exp,4,40,8,TopRight,BottomLeft,TopLeft,TopRight,BottomLeft,TopLeft,608,402,845,1,1,1,1,0,PROBE
Human,EZ_06,2017-09-26,13:43:18,Exp,4,41,10,TopRight,BottomRight,TopLeft,TopRight,BottomRight,TopLeft,405,440,1704,1,1,1,1,0,BASE
Human,EZ_06,2017-09-26,13:43:24,Exp,4,42,7,TopRight,TopLeft,BottomRight,TopRight,TopLeft,BottomRight,714,404,627,1,1,1,1,0,PROBE
Human,EZ_06,2017-09-26,13:43:31,Exp,4,43,20,BottomRight,TopRight,TopLeft,BottomRight,TopRight,TopLeft,475,1034,2329,1,1,1,1,0,PROBE
Human,EZ_06,2017-09-26,13:43:35,Exp,4,44,16,BottomLeft,BottomRight,TopLeft,BottomLeft,BottomRight,TopLeft,605,448,607,1,1,1,1,0,PROBE
Human,EZ_06,2017-09-26,13:43:40,Exp,4,45,15,BottomLeft,TopRight,BottomRight,BottomLeft,TopRight,BottomRight,437,403,868,1,1,1,1,0,BASE
Human,EZ_06,2017-09-26,13:43:45,Exp,4,46,23,BottomRight,BottomLeft,TopRight,BottomRight,BottomLeft,TopRight,725,470,541,1,1,1,1,0,PROBE
Human,EZ_06,2017-09-26,13:43:50,Exp,4,47,13,BottomLeft,TopLeft,BottomRight,BottomLeft,TopLeft,BottomRight,457,407,694,1,1,1,1,0,BASE
Human,EZ_06,2017-09-26,13:43:55,Exp,4,48,1,TopLeft,TopRight,BottomRight,TopLeft,TopRight,BottomRight,437,422,743,1,1,1,1,0,BASE
Human,EZ_09,2017-10-05,10:30:25,Exp,1,1,21,BottomRight,TopRight,BottomLeft,BottomRight,TopRight,BottomLeft,5002,392,668,1,1,1,1,0,PROBE
Human,EZ_09,2017-10-05,10:30:30,Exp,1,2,6,TopRight,TopLeft,BottomLeft,TopRight,TopLeft,BottomLeft,1058,398,615,1,1,1,1,0,PROBE
Human,EZ_09,2017-10-05,10:30:35,Exp,1,3,7,TopRight,TopLeft,BottomRight,TopRight,TopLeft,BottomRight,419,401,701,1,1,1,1,0,BASE
Human,EZ_09,2017-10-05,10:30:41,Exp,1,4,9,TopRight,BottomLeft,BottomRight,TopRight,BottomLeft,BottomRight,687,1294,685,1,1,1,1,0,PROBE
Human,EZ_09,2017-10-05,10:30:52,Exp,1,5,15,BottomLeft,TopRight,BottomRight,BottomLeft,TopRight,BottomRight,2921,392,622,1,1,1,1,0,PROBE
Human,EZ_09,2017-10-05,10:30:56,Exp,1,6,11,TopRight,BottomRight,BottomLeft,TopRight,BottomRight,BottomLeft,494,400,623,1,1,1,1,0,PROBE
Human,EZ_09,2017-10-05,10:31:02,Exp,1,7,0,TopLeft,TopRight,BottomLeft,TopLeft,TopRight,BottomLeft,710,403,1008,1,1,1,1,0,BASE
Human,EZ_09,2017-10-05,10:31:07,Exp,1,8,2,TopLeft,BottomLeft,TopRight,TopLeft,BottomLeft,TopRight,533,473,874,1,1,1,1,0,PROBE
Human,EZ_09,2017-10-05,10:31:12,Exp,1,9,20,BottomRight,TopRight,TopLeft,BottomRight,TopRight,TopLeft,1324,399,564,1,1,1,1,0,BASE
Human,EZ_09,2017-10-05,10:31:18,Exp,1,10,14,BottomLeft,TopRight,TopLeft,BottomLeft,TopRight,TopLeft,1997,395,565,1,1,1,1,0,PROBE
Human,EZ_09,2017-10-05,10:31:23,Exp,1,11,3,TopLeft,BottomLeft,BottomRight,TopLeft,BottomLeft,BottomRight,1176,560,670,1,1,1,1,0,PROBE
Human,EZ_09,2017-10-05,10:31:28,Exp,1,12,5,TopLeft,BottomRight,BottomLeft,TopLeft,BottomRight,BottomLeft,643,400,800,1,1,1,1,0,BASE
Human,EZ_09,2017-10-05,10:31:33,Exp,1,13,8,TopRight,BottomLeft,TopLeft,TopRight,BottomLeft,TopLeft,476,416,483,1,1,1,1,0,BASE
Human,EZ_09,2017-10-05,10:31:38,Exp,1,14,10,TopRight,BottomRight,TopLeft,TopRight,BottomRight,TopLeft,649,393,567,1,1,1,1,0,PROBE
Human,EZ_09,2017-10-05,10:31:43,Exp,1,15,19,BottomRight,TopLeft,BottomLeft,BottomRight,TopLeft,BottomLeft,1001,399,950,1,1,1,1,0,BASE
Human,EZ_09,2017-10-05,10:31:48,Exp,1,16,16,BottomLeft,BottomRight,TopLeft,BottomLeft,BottomRight,TopLeft,1286,402,730,1,1,1,1,0,BASE
Human,EZ_09,2017-10-05,10:31:54,Exp,1,17,17,BottomLeft,BottomRight,TopRight,BottomLeft,BottomRight,TopRight,1060,648,527,1,1,1,1,0,PROBE
Human,EZ_09,2017-10-05,10:31:58,Exp,1,18,4,TopLeft,BottomRight,TopRight,TopLeft,BottomRight,TopRight,436,404,576,1,1,1,1,0,BASE
Human,EZ_09,2017-10-05,10:32:04,Exp,1,19,18,BottomRight,TopLeft,TopRight,BottomRight,TopLeft,TopRight,1638,483,566,1,1,1,1,0,PROBE
Human,EZ_09,2017-10-05,10:32:09,Exp,1,20,22,BottomRight,BottomLeft,TopLeft,BottomRight,BottomLeft,TopLeft,521,399,525,1,1,1,1,0,BASE
Human,EZ_09,2017-10-05,10:32:14,Exp,1,21,1,TopLeft,TopRight,BottomRight,TopLeft,TopRight,BottomRight,605,400,851,1,1,1,1,0,BASE
Human,EZ_09,2017-10-05,10:32:19,Exp,1,22,12,BottomLeft,TopLeft,TopRight,BottomLeft,TopLeft,TopRight,728,403,1010,1,1,1,1,0,BASE
Human,EZ_09,2017-10-05,10:32:26,Exp,1,23,23,BottomRight,BottomLeft,TopRight,BottomRight,BottomLeft,TopRight,1028,692,2547,1,1,1,1,0,PROBE
Human,EZ_09,2017-10-05,10:32:33,Exp,1,24,13,BottomLeft,TopLeft,BottomRight,BottomLeft,TopLeft,BottomRight,832,1355,925,1,1,1,1,0,BASE
Human,EZ_09,2017-10-05,10:32:38,Exp,1,25,8,TopRight,BottomLeft,TopLeft,TopRight,BottomLeft,TopLeft,794,404,741,1,1,1,1,0,BASE
Human,EZ_09,2017-10-05,10:32:43,Exp,1,26,4,TopLeft,BottomRight,TopRight,TopLeft,BottomRight,TopRight,837,631,566,1,1,1,1,0,PROBE
Human,EZ_09,2017-10-05,10:32:49,Exp,1,27,22,BottomRight,BottomLeft,TopLeft,BottomRight,BottomLeft,TopLeft,1077,743,737,1,1,1,1,0,PROBE
Human,EZ_09,2017-10-05,10:32:54,Exp,1,28,7,TopRight,TopLeft,BottomRight,TopRight,TopLeft,BottomRight,815,605,671,1,1,1,1,0,BASE
Human,EZ_09,2017-10-05,10:33:00,Exp,1,29,19,BottomRight,TopLeft,BottomLeft,BottomRight,TopLeft,BottomLeft,1070,1148,704,1,1,1,1,0,PROBE
Human,EZ_09,2017-10-05,10:33:08,Exp,1,30,17,BottomLeft,BottomRight,TopRight,BottomLeft,BottomRight,TopRight,968,401,1092,1,1,1,1,0,BASE
Human,EZ_09,2017-10-05,10:33:12,Exp,1,31,16,BottomLeft,BottomRight,TopLeft,BottomLeft,BottomRight,TopLeft,670,394,463,1,1,1,1,0,BASE
Human,EZ_09,2017-10-05,10:33:17,Exp,1,32,6,TopRight,TopLeft,BottomLeft,TopRight,TopLeft,BottomLeft,768,396,722,1,1,1,1,0,PROBE
Human,EZ_09,2017-10-05,10:33:22,Exp,1,33,10,TopRight,BottomRight,TopLeft,TopRight,BottomRight,TopLeft,445,391,523,1,1,1,1,0,PROBE
Human,EZ_09,2017-10-05,10:33:27,Exp,1,34,3,TopLeft,BottomLeft,BottomRight,TopLeft,BottomLeft,BottomRight,501,849,732,1,1,1,1,0,PROBE
Human,EZ_09,2017-10-05,10:33:34,Exp,1,35,15,BottomLeft,TopRight,BottomRight,BottomLeft,TopRight,BottomRight,1204,890,1191,1,1,1,1,0,PROBE
Human,EZ_09,2017-10-05,10:33:45,Exp,1,36,23,BottomRight,BottomLeft,TopRight,BottomRight,BottomLeft,TopRight,1543,394,634,1,1,1,1,0,BASE
Human,EZ_09,2017-10-05,10:33:49,Exp,1,37,12,BottomLeft,TopLeft,TopRight,BottomLeft,TopLeft,TopRight,742,400,571,1,1,1,1,0,BASE
Human,EZ_09,2017-10-05,10:33:54,Exp,1,38,5,TopLeft,BottomRight,BottomLeft,TopLeft,BottomRight,BottomLeft,401,402,683,1,1,1,1,0,BASE
Human,EZ_09,2017-10-05,10:33:59,Exp,1,39,1,TopLeft,TopRight,BottomRight,TopLeft,TopRight,BottomRight,404,404,706,1,1,1,1,0,BASE
Human,EZ_09,2017-10-05,10:34:04,Exp,1,40,18,BottomRight,TopLeft,TopRight,BottomRight,TopLeft,TopRight,726,644,415,1,1,1,1,0,BASE
Human,EZ_09,2017-10-05,10:34:09,Exp,1,41,20,BottomRight,TopRight,TopLeft,BottomRight,TopRight,TopLeft,420,399,534,1,1,1,1,0,BASE
Human,EZ_09,2017-10-05,10:34:15,Exp,1,42,0,TopLeft,TopRight,BottomLeft,TopLeft,TopRight,BottomLeft,1348,550,1287,1,1,1,1,0,PROBE
Human,EZ_09,2017-10-05,10:34:22,Exp,1,43,21,BottomRight,TopRight,BottomLeft,BottomRight,TopRight,BottomLeft,620,467,820,1,1,1,1,0,BASE
Human,EZ_09,2017-10-05,10:34:27,Exp,1,44,9,TopRight,BottomLeft,BottomRight,TopRight,BottomLeft,BottomRight,395,838,619,1,1,1,1,0,PROBE
Human,EZ_09,2017-10-05,10:34:31,Exp,1,45,11,TopRight,BottomRight,BottomLeft,TopRight,TopRight,NA,573,534,NA,1,0,NA,0,0,BASE
Human,EZ_09,2017-10-05,10:34:38,Exp,1,46,13,BottomLeft,TopLeft,BottomRight,BottomLeft,TopLeft,BottomRight,802,392,617,1,1,1,1,0,PROBE
Human,EZ_09,2017-10-05,10:34:46,Exp,1,47,2,TopLeft,BottomLeft,TopRight,TopLeft,BottomLeft,TopRight,1215,682,722,1,1,1,1,0,PROBE
Human,EZ_09,2017-10-05,10:34:50,Exp,1,48,14,BottomLeft,TopRight,TopLeft,BottomLeft,TopRight,TopLeft,670,726,502,1,1,1,1,0,PROBE
Human,EZ_09,2017-10-05,10:34:57,Exp,2,1,7,TopRight,TopLeft,BottomRight,TopRight,TopLeft,BottomRight,777,606,975,1,1,1,1,0,BASE
Human,EZ_09,2017-10-05,10:35:02,Exp,2,2,23,BottomRight,BottomLeft,TopRight,BottomRight,BottomLeft,TopRight,1099,420,540,1,1,1,1,0,BASE
Human,EZ_09,2017-10-05,10:35:08,Exp,2,3,20,BottomRight,TopRight,TopLeft,BottomRight,TopRight,TopLeft,810,483,682,1,1,1,1,0,BASE
Human,EZ_09,2017-10-05,10:35:21,Exp,2,4,18,BottomRight,TopLeft,TopRight,BottomRight,TopLeft,TopRight,8036,801,599,1,1,1,1,0,PROBE
Human,EZ_09,2017-10-05,10:35:27,Exp,2,5,9,TopRight,BottomLeft,BottomRight,TopRight,BottomLeft,BottomRight,1282,528,709,1,1,1,1,0,PROBE
Human,EZ_09,2017-10-05,10:35:34,Exp,2,6,15,BottomLeft,TopRight,BottomRight,BottomLeft,TopRight,BottomRight,998,777,2024,1,1,1,1,0,BASE
Human,EZ_09,2017-10-05,10:35:40,Exp,2,7,2,TopLeft,BottomLeft,TopRight,TopLeft,BottomLeft,TopRight,895,458,544,1,1,1,1,0,PROBE
Human,EZ_09,2017-10-05,10:35:45,Exp,2,8,3,TopLeft,BottomLeft,BottomRight,TopLeft,BottomLeft,BottomRight,535,394,979,1,1,1,1,0,PROBE
Human,EZ_09,2017-10-05,10:35:51,Exp,2,9,16,BottomLeft,BottomRight,TopLeft,BottomLeft,BottomRight,TopLeft,540,588,1383,1,1,1,1,0,BASE
Human,EZ_09,2017-10-05,10:35:58,Exp,2,10,6,TopRight,TopLeft,BottomLeft,TopRight,TopLeft,BottomLeft,2144,652,1023,1,1,1,1,0,BASE
Human,EZ_09,2017-10-05,10:36:04,Exp,2,11,5,TopLeft,BottomRight,BottomLeft,TopLeft,BottomRight,BottomLeft,935,892,787,1,1,1,1,0,BASE
Human,EZ_09,2017-10-05,10:36:10,Exp,2,12,4,TopLeft,BottomRight,TopRight,TopLeft,BottomRight,TopRight,1253,1013,849,1,1,1,1,0,PROBE
Human,EZ_09,2017-10-05,10:36:15,Exp,2,13,14,BottomLeft,TopRight,TopLeft,BottomLeft,TopRight,TopLeft,639,436,536,1,1,1,1,0,BASE
Human,EZ_09,2017-10-05,10:36:22,Exp,2,14,13,BottomLeft,TopLeft,BottomRight,BottomLeft,TopLeft,BottomRight,669,1616,1971,1,1,1,1,0,PROBE
Human,EZ_09,2017-10-05,10:36:28,Exp,2,15,10,TopRight,BottomRight,TopLeft,TopRight,BottomRight,TopLeft,1430,1062,810,1,1,1,1,0,BASE
Human,EZ_09,2017-10-05,10:36:36,Exp,2,16,11,TopRight,BottomRight,BottomLeft,TopRight,BottomRight,BottomLeft,1189,916,1091,1,1,1,1,0,PROBE
Human,EZ_09,2017-10-05,10:36:42,Exp,2,17,1,TopLeft,TopRight,BottomRight,TopLeft,TopRight,BottomRight,885,760,1398,1,1,1,1,0,BASE
Human,EZ_09,2017-10-05,10:36:48,Exp,2,18,12,BottomLeft,TopLeft,TopRight,BottomLeft,TopLeft,TopRight,1130,883,718,1,1,1,1,0,PROBE
Human,EZ_09,2017-10-05,10:36:54,Exp,2,19,0,TopLeft,TopRight,BottomLeft,TopLeft,TopRight,BottomLeft,721,649,1604,1,1,1,1,0,PROBE
Human,EZ_09,2017-10-05,10:36:59,Exp,2,20,8,TopRight,BottomLeft,TopLeft,TopRight,BottomLeft,TopLeft,909,393,701,1,1,1,1,0,PROBE
Human,EZ_09,2017-10-05,10:37:08,Exp,2,21,21,BottomRight,TopRight,BottomLeft,BottomRight,TopRight,BottomLeft,856,426,667,1,1,1,1,0,PROBE
Human,EZ_09,2017-10-05,10:37:15,Exp,2,22,17,BottomLeft,BottomRight,TopRight,BottomLeft,BottomRight,TopRight,2165,532,799,1,1,1,1,0,BASE
Human,EZ_09,2017-10-05,10:37:20,Exp,2,23,22,BottomRight,BottomLeft,TopLeft,BottomRight,BottomLeft,TopLeft,772,848,510,1,1,1,1,0,PROBE
Human,EZ_09,2017-10-05,10:37:26,Exp,2,24,19,BottomRight,TopLeft,BottomLeft,BottomRight,TopLeft,BottomLeft,793,397,1324,1,1,1,1,0,BASE
Human,EZ_09,2017-10-05,10:37:31,Exp,2,25,10,TopRight,BottomRight,TopLeft,TopRight,BottomRight,TopLeft,703,747,462,1,1,1,1,0,PROBE
Human,EZ_09,2017-10-05,10:37:41,Exp,2,26,21,BottomRight,TopRight,BottomLeft,BottomRight,TopRight,BottomLeft,601,401,4565,1,1,1,1,0,PROBE
Human,EZ_09,2017-10-05,10:37:47,Exp,2,27,1,TopLeft,TopRight,BottomRight,TopLeft,TopRight,BottomRight,589,540,740,1,1,1,1,0,BASE
Human,EZ_09,2017-10-05,10:37:52,Exp,2,28,2,TopLeft,BottomLeft,TopRight,TopLeft,BottomLeft,TopRight,874,482,576,1,1,1,1,0,PROBE
Human,EZ_09,2017-10-05,10:38:01,Exp,2,29,17,BottomLeft,BottomRight,TopRight,BottomLeft,BottomRight,TopRight,705,401,475,1,1,1,1,0,BASE
Human,EZ_09,2017-10-05,10:38:29,Exp,2,30,19,BottomRight,TopLeft,BottomLeft,BottomRight,TopLeft,BottomLeft,7418,394,2125,1,1,1,1,0,PROBE
Human,EZ_09,2017-10-05,10:38:35,Exp,2,31,4,TopLeft,BottomRight,TopRight,TopLeft,BottomRight,TopRight,1332,475,757,1,1,1,1,0,PROBE
Human,EZ_09,2017-10-05,10:38:40,Exp,2,32,16,BottomLeft,BottomRight,TopLeft,BottomLeft,BottomRight,TopLeft,874,418,459,1,1,1,1,0,BASE
Human,EZ_09,2017-10-05,10:39:17,Exp,2,33,12,BottomLeft,TopLeft,TopRight,BottomLeft,TopLeft,TopRight,10124,403,650,1,1,1,1,0,BASE
Human,EZ_09,2017-10-05,10:39:22,Exp,2,34,11,TopRight,BottomRight,BottomLeft,TopRight,BottomRight,BottomLeft,1005,493,767,1,1,1,1,0,PROBE
Human,EZ_09,2017-10-05,10:39:27,Exp,2,35,13,BottomLeft,TopLeft,BottomRight,BottomLeft,TopLeft,BottomRight,828,407,686,1,1,1,1,0,BASE
Human,EZ_09,2017-10-05,10:39:33,Exp,2,36,6,TopRight,TopLeft,BottomLeft,TopRight,TopLeft,BottomLeft,416,404,654,1,1,1,1,0,BASE
Human,EZ_09,2017-10-05,10:39:39,Exp,2,37,7,TopRight,TopLeft,BottomRight,TopRight,TopLeft,BottomRight,642,394,713,1,1,1,1,0,BASE
Human,EZ_09,2017-10-05,10:39:44,Exp,2,38,20,BottomRight,TopRight,TopLeft,BottomRight,TopRight,TopLeft,568,444,515,1,1,1,1,0,PROBE
Human,EZ_09,2017-10-05,10:39:50,Exp,2,39,14,BottomLeft,TopRight,TopLeft,BottomLeft,TopRight,TopLeft,1081,399,521,1,1,1,1,0,PROBE
Human,EZ_09,2017-10-05,10:39:56,Exp,2,40,22,BottomRight,BottomLeft,TopLeft,BottomRight,BottomLeft,TopLeft,954,566,505,1,1,1,1,0,PROBE
Human,EZ_09,2017-10-05,10:40:01,Exp,2,41,23,BottomRight,BottomLeft,TopRight,BottomRight,BottomLeft,TopRight,897,563,410,1,1,1,1,0,PROBE
Human,EZ_09,2017-10-05,10:40:06,Exp,2,42,18,BottomRight,TopLeft,TopRight,BottomRight,TopLeft,TopRight,762,404,411,1,1,1,1,0,BASE
Human,EZ_09,2017-10-05,10:40:15,Exp,2,43,15,BottomLeft,TopRight,BottomRight,BottomLeft,TopRight,BottomRight,2881,539,665,1,1,1,1,0,BASE
Human,EZ_09,2017-10-05,10:40:28,Exp,2,44,0,TopLeft,TopRight,BottomLeft,TopLeft,TopRight,BottomLeft,672,393,1215,1,1,1,1,0,PROBE
Human,EZ_09,2017-10-05,10:40:33,Exp,2,45,9,TopRight,BottomLeft,BottomRight,TopRight,BottomLeft,BottomRight,1619,392,621,1,1,1,1,0,PROBE
Human,EZ_09,2017-10-05,10:40:39,Exp,2,46,8,TopRight,BottomLeft,TopLeft,TopRight,BottomLeft,TopLeft,555,673,563,1,1,1,1,0,BASE
Human,EZ_09,2017-10-05,10:40:43,Exp,2,47,5,TopLeft,BottomRight,BottomLeft,TopLeft,BottomRight,BottomLeft,400,402,736,1,1,1,1,0,BASE
Human,EZ_09,2017-10-05,10:40:48,Exp,2,48,3,TopLeft,BottomLeft,BottomRight,TopLeft,BottomLeft,BottomRight,400,398,613,1,1,1,1,0,BASE
Human,EZ_09,2017-10-05,10:40:53,Exp,3,1,12,BottomLeft,TopLeft,TopRight,BottomLeft,TopLeft,TopRight,886,400,500,1,1,1,1,0,BASE
Human,EZ_09,2017-10-05,10:41:01,Exp,3,2,22,BottomRight,BottomLeft,TopLeft,BottomRight,BottomLeft,TopLeft,4137,474,834,1,1,1,1,0,PROBE
Human,EZ_09,2017-10-05,10:41:08,Exp,3,3,19,BottomRight,TopLeft,BottomLeft,BottomRight,TopLeft,BottomLeft,473,614,629,1,1,1,1,0,PROBE
Human,EZ_09,2017-10-05,10:41:15,Exp,3,4,5,TopLeft,BottomRight,BottomLeft,TopLeft,BottomRight,BottomLeft,678,399,617,1,1,1,1,0,BASE
Human,EZ_09,2017-10-05,10:41:22,Exp,3,5,9,TopRight,BottomLeft,BottomRight,TopRight,BottomLeft,BottomRight,687,397,952,1,1,1,1,0,PROBE
Human,EZ_09,2017-10-05,10:41:28,Exp,3,6,0,TopLeft,TopRight,BottomLeft,TopLeft,TopRight,BottomLeft,846,726,1484,1,1,1,1,0,BASE
Human,EZ_09,2017-10-05,10:41:33,Exp,3,7,2,TopLeft,BottomLeft,TopRight,TopLeft,BottomLeft,TopRight,461,524,562,1,1,1,1,0,PROBE
Human,EZ_09,2017-10-05,10:41:40,Exp,3,8,8,TopRight,BottomLeft,TopLeft,TopRight,BottomLeft,TopLeft,1077,1125,564,1,1,1,1,0,PROBE
Human,EZ_09,2017-10-05,10:41:47,Exp,3,9,10,TopRight,BottomRight,TopLeft,TopRight,BottomRight,TopLeft,572,1973,447,1,1,1,1,0,PROBE
Human,EZ_09,2017-10-05,10:41:52,Exp,3,10,14,BottomLeft,TopRight,TopLeft,BottomLeft,TopRight,TopLeft,1067,845,598,1,1,1,1,0,BASE
Human,EZ_09,2017-10-05,10:41:58,Exp,3,11,21,BottomRight,TopRight,BottomLeft,BottomRight,TopRight,BottomLeft,486,438,1017,1,1,1,1,0,BASE
Human,EZ_09,2017-10-05,10:42:03,Exp,3,12,13,BottomLeft,TopLeft,BottomRight,BottomLeft,TopLeft,BottomRight,820,405,743,1,1,1,1,0,PROBE
Human,EZ_09,2017-10-05,10:42:08,Exp,3,13,17,BottomLeft,BottomRight,TopRight,BottomLeft,BottomRight,TopRight,985,726,598,1,1,1,1,0,BASE
Human,EZ_09,2017-10-05,10:42:12,Exp,3,14,20,BottomRight,TopRight,TopLeft,BottomRight,TopRight,TopLeft,479,394,527,1,1,1,1,0,PROBE
Human,EZ_09,2017-10-05,10:42:17,Exp,3,15,1,TopLeft,TopRight,BottomRight,TopLeft,TopRight,BottomRight,549,399,621,1,1,1,1,0,PROBE
Human,EZ_09,2017-10-05,10:42:22,Exp,3,16,16,BottomLeft,BottomRight,TopLeft,BottomLeft,BottomRight,TopLeft,744,406,560,1,1,1,1,0,PROBE
Human,EZ_09,2017-10-05,10:42:27,Exp,3,17,23,BottomRight,BottomLeft,TopRight,BottomRight,BottomLeft,TopRight,1049,397,515,1,1,1,1,0,BASE
Human,EZ_09,2017-10-05,10:42:31,Exp,3,18,6,TopRight,TopLeft,BottomLeft,TopRight,TopLeft,BottomLeft,406,404,620,1,1,1,1,0,BASE
Human,EZ_09,2017-10-05,10:42:36,Exp,3,19,11,TopRight,BottomRight,BottomLeft,TopRight,BottomRight,BottomLeft,414,401,614,1,1,1,1,0,BASE
Human,EZ_09,2017-10-05,10:42:45,Exp,3,20,18,BottomRight,TopLeft,TopRight,BottomRight,TopLeft,TopRight,1079,391,683,1,1,1,1,0,PROBE
Human,EZ_09,2017-10-05,10:43:19,Exp,3,21,15,BottomLeft,TopRight,BottomRight,BottomLeft,TopRight,BottomRight,29951,393,619,1,1,1,1,0,PROBE
Human,EZ_09,2017-10-05,10:43:25,Exp,3,22,7,TopRight,TopLeft,BottomRight,TopRight,TopLeft,BottomRight,1060,404,2152,1,1,1,1,0,BASE
Human,EZ_09,2017-10-05,10:43:32,Exp,3,23,3,TopLeft,BottomLeft,BottomRight,TopLeft,BottomLeft,BottomRight,774,400,625,1,1,1,1,0,BASE
Human,EZ_09,2017-10-05,10:43:53,Exp,3,24,4,TopLeft,BottomRight,TopRight,TopLeft,BottomRight,TopRight,420,401,504,1,1,1,1,0,BASE
Human,EZ_09,2017-10-05,10:44:02,Exp,3,25,21,BottomRight,TopRight,BottomLeft,BottomRight,TopRight,BottomLeft,3430,397,622,1,1,1,1,0,PROBE
Human,EZ_09,2017-10-05,10:44:17,Exp,3,26,16,BottomLeft,BottomRight,TopLeft,BottomLeft,BottomRight,TopLeft,4175,396,2167,1,1,1,1,0,BASE
Human,EZ_09,2017-10-05,10:44:28,Exp,3,27,1,TopLeft,TopRight,BottomRight,TopLeft,TopRight,BottomRight,2935,397,617,1,1,1,1,0,PROBE
Human,EZ_09,2017-10-05,10:44:35,Exp,3,28,11,TopRight,BottomRight,BottomLeft,TopRight,BottomRight,BottomLeft,1123,402,615,1,1,1,1,0,BASE
Human,EZ_09,2017-10-05,10:44:41,Exp,3,29,22,BottomRight,BottomLeft,TopLeft,BottomRight,BottomLeft,TopLeft,762,404,1224,1,1,1,1,0,BASE
Human,EZ_09,2017-10-05,10:44:49,Exp,3,30,19,BottomRight,TopLeft,BottomLeft,BottomRight,TopLeft,BottomLeft,1133,1884,720,1,1,1,1,0,PROBE
Human,EZ_09,2017-10-05,10:44:55,Exp,3,31,3,TopLeft,BottomLeft,BottomRight,TopLeft,BottomLeft,BottomRight,795,520,755,1,1,1,1,0,BASE
Human,EZ_09,2017-10-05,10:45:00,Exp,3,32,14,BottomLeft,TopRight,TopLeft,BottomLeft,TopRight,TopLeft,523,403,458,1,1,1,1,0,BASE
Human,EZ_09,2017-10-05,10:45:06,Exp,3,33,2,TopLeft,BottomLeft,TopRight,TopLeft,BottomLeft,TopRight,815,606,519,1,1,1,1,0,BASE
Human,EZ_09,2017-10-05,10:45:11,Exp,3,34,12,BottomLeft,TopLeft,TopRight,BottomLeft,TopLeft,TopRight,871,396,1029,1,1,1,1,0,PROBE
Human,EZ_09,2017-10-05,10:45:17,Exp,3,35,13,BottomLeft,TopLeft,BottomRight,BottomLeft,TopLeft,BottomRight,950,404,726,1,1,1,1,0,BASE
Human,EZ_09,2017-10-05,10:45:21,Exp,3,36,4,TopLeft,BottomRight,TopRight,TopLeft,BottomRight,TopRight,523,405,477,1,1,1,1,0,BASE
Human,EZ_09,2017-10-05,10:45:26,Exp,3,37,9,TopRight,BottomLeft,BottomRight,TopRight,BottomLeft,BottomRight,994,392,634,1,1,1,1,0,PROBE
Human,EZ_09,2017-10-05,10:45:35,Exp,3,38,20,BottomRight,TopRight,TopLeft,BottomRight,TopRight,TopLeft,985,4161,497,1,1,1,1,0,PROBE
Human,EZ_09,2017-10-05,10:45:39,Exp,3,39,10,TopRight,BottomRight,TopLeft,TopRight,BottomRight,TopLeft,623,390,546,1,1,1,1,0,PROBE
Human,EZ_09,2017-10-05,10:45:44,Exp,3,40,7,TopRight,TopLeft,BottomRight,TopRight,TopLeft,BottomRight,650,412,618,1,1,1,1,0,PROBE
Human,EZ_09,2017-10-05,10:45:49,Exp,3,41,15,BottomLeft,TopRight,BottomRight,BottomLeft,TopRight,BottomRight,391,392,617,1,1,1,1,0,PROBE
Human,EZ_09,2017-10-05,10:45:53,Exp,3,42,18,BottomRight,TopLeft,TopRight,BottomRight,TopLeft,TopRight,630,400,499,1,1,1,1,0,PROBE
Human,EZ_09,2017-10-05,10:45:58,Exp,3,43,0,TopLeft,TopRight,BottomLeft,TopLeft,TopRight,BottomLeft,435,399,617,1,1,1,1,0,BASE
Human,EZ_09,2017-10-05,10:46:02,Exp,3,44,8,TopRight,BottomLeft,TopLeft,TopRight,BottomLeft,TopLeft,433,409,448,1,1,1,1,0,PROBE
Human,EZ_09,2017-10-05,10:46:07,Exp,3,45,6,TopRight,TopLeft,BottomLeft,TopRight,TopLeft,BottomLeft,423,626,724,1,1,1,1,0,BASE
Human,EZ_09,2017-10-05,10:46:12,Exp,3,46,17,BottomLeft,BottomRight,TopRight,BottomLeft,BottomRight,TopRight,696,402,497,1,1,1,1,0,BASE
Human,EZ_09,2017-10-05,10:46:17,Exp,3,47,5,TopLeft,BottomRight,BottomLeft,TopLeft,BottomRight,BottomLeft,619,396,622,1,1,1,1,0,PROBE
Human,EZ_09,2017-10-05,10:46:21,Exp,3,48,23,BottomRight,BottomLeft,TopRight,BottomRight,BottomLeft,TopRight,656,401,567,1,1,1,1,0,BASE
Human,EZ_09,2017-10-05,10:46:26,Exp,4,1,17,BottomLeft,BottomRight,TopRight,BottomLeft,BottomRight,TopRight,575,403,483,1,1,1,1,0,BASE
Human,EZ_09,2017-10-05,10:46:30,Exp,4,2,22,BottomRight,BottomLeft,TopLeft,BottomRight,BottomLeft,TopLeft,552,402,481,1,1,1,1,0,BASE
Human,EZ_09,2017-10-05,10:46:35,Exp,4,3,0,TopLeft,TopRight,BottomLeft,TopLeft,TopRight,BottomLeft,435,400,621,1,1,1,1,0,BASE
Human,EZ_09,2017-10-05,10:46:39,Exp,4,4,9,TopRight,BottomLeft,BottomRight,TopRight,BottomLeft,BottomRight,400,398,620,1,1,1,1,0,BASE
Human,EZ_09,2017-10-05,10:46:43,Exp,4,5,14,BottomLeft,TopRight,TopLeft,BottomLeft,TopRight,TopLeft,406,401,520,1,1,1,1,0,BASE
Human,EZ_09,2017-10-05,10:46:48,Exp,4,6,3,TopLeft,BottomLeft,BottomRight,TopLeft,BottomLeft,BottomRight,497,577,613,1,1,1,1,0,PROBE
Human,EZ_09,2017-10-05,10:46:54,Exp,4,7,5,TopLeft,BottomRight,BottomLeft,TopLeft,BottomRight,BottomLeft,402,402,654,1,1,1,1,0,BASE
Human,EZ_09,2017-10-05,10:46:59,Exp,4,8,13,BottomLeft,TopLeft,BottomRight,BottomLeft,TopLeft,BottomRight,801,392,635,1,1,1,1,0,PROBE
Human,EZ_09,2017-10-05,10:47:03,Exp,4,9,1,TopLeft,TopRight,BottomRight,TopLeft,TopRight,BottomRight,407,398,619,1,1,1,1,0,PROBE
Human,EZ_09,2017-10-05,10:47:08,Exp,4,10,2,TopLeft,BottomLeft,TopRight,TopLeft,BottomLeft,TopRight,415,417,571,1,1,1,1,0,PROBE
Human,EZ_09,2017-10-05,10:47:13,Exp,4,11,18,BottomRight,TopLeft,TopRight,BottomRight,TopLeft,TopRight,1317,395,551,1,1,1,1,0,PROBE
Human,EZ_09,2017-10-05,10:47:20,Exp,4,12,11,TopRight,BottomRight,BottomLeft,TopRight,BottomRight,BottomLeft,708,1443,1662,1,1,1,1,0,BASE
Human,EZ_09,2017-10-05,10:47:25,Exp,4,13,19,BottomRight,TopLeft,BottomLeft,BottomRight,TopLeft,BottomLeft,1363,396,652,1,1,1,1,0,PROBE
Human,EZ_09,2017-10-05,10:47:30,Exp,4,14,16,BottomLeft,BottomRight,TopLeft,BottomLeft,BottomRight,TopLeft,773,407,989,1,1,1,1,0,PROBE
Human,EZ_09,2017-10-05,10:47:36,Exp,4,15,8,TopRight,BottomLeft,TopLeft,TopRight,BottomLeft,TopLeft,828,505,510,1,1,1,1,0,BASE
Human,EZ_09,2017-10-05,10:47:41,Exp,4,16,6,TopRight,TopLeft,BottomLeft,TopRight,TopLeft,BottomLeft,421,405,653,1,1,1,1,0,BASE
Human,EZ_09,2017-10-05,10:47:46,Exp,4,17,7,TopRight,TopLeft,BottomRight,TopRight,TopLeft,BottomRight,551,737,666,1,1,1,1,0,PROBE
Human,EZ_09,2017-10-05,10:48:04,Exp,4,18,4,TopLeft,BottomRight,TopRight,TopLeft,BottomRight,TopRight,3046,397,8930,1,1,1,1,0,BASE
Human,EZ_09,2017-10-05,10:48:09,Exp,4,19,20,BottomRight,TopRight,TopLeft,BottomRight,TopRight,TopLeft,1146,447,436,1,1,1,1,0,PROBE
Human,EZ_09,2017-10-05,10:48:13,Exp,4,20,23,BottomRight,BottomLeft,TopRight,BottomRight,BottomLeft,TopRight,550,406,572,1,1,1,1,0,PROBE
Human,EZ_09,2017-10-05,10:48:18,Exp,4,21,21,BottomRight,TopRight,BottomLeft,BottomRight,TopRight,BottomLeft,521,400,616,1,1,1,1,0,BASE
Human,EZ_09,2017-10-05,10:48:23,Exp,4,22,15,BottomLeft,TopRight,BottomRight,BottomLeft,TopRight,BottomRight,562,722,614,1,1,1,1,0,PROBE
Human,EZ_09,2017-10-05,10:48:27,Exp,4,23,10,TopRight,BottomRight,TopLeft,TopRight,BottomRight,TopLeft,610,404,452,1,1,1,1,0,BASE
Human,EZ_09,2017-10-05,10:48:32,Exp,4,24,12,BottomLeft,TopLeft,TopRight,BottomLeft,TopLeft,TopRight,400,404,500,1,1,1,1,0,PROBE
Human,EZ_09,2017-10-05,10:48:37,Exp,4,25,16,BottomLeft,BottomRight,TopLeft,BottomLeft,BottomRight,TopLeft,781,552,917,1,1,1,1,0,PROBE
Human,EZ_09,2017-10-05,10:48:42,Exp,4,26,10,TopRight,BottomRight,TopLeft,TopRight,BottomRight,TopLeft,484,395,921,1,1,1,1,0,PROBE
Human,EZ_09,2017-10-05,10:48:53,Exp,4,27,17,BottomLeft,BottomRight,TopRight,BottomLeft,BottomRight,TopRight,7378,399,630,1,1,1,1,0,BASE
Human,EZ_09,2017-10-05,10:48:58,Exp,4,28,4,TopLeft,BottomRight,TopRight,TopLeft,BottomRight,TopRight,694,408,447,1,1,1,1,0,PROBE
Human,EZ_09,2017-10-05,10:49:03,Exp,4,29,18,BottomRight,TopLeft,TopRight,BottomRight,TopLeft,TopRight,629,400,774,1,1,1,1,0,PROBE
Human,EZ_09,2017-10-05,10:49:08,Exp,4,30,6,TopRight,TopLeft,BottomLeft,TopRight,TopLeft,BottomLeft,646,400,619,1,1,1,1,0,BASE
Human,EZ_09,2017-10-05,10:49:12,Exp,4,31,20,BottomRight,TopRight,TopLeft,BottomRight,TopRight,TopLeft,414,626,578,1,1,1,1,0,BASE
Human,EZ_09,2017-10-05,10:49:18,Exp,4,32,14,BottomLeft,TopRight,TopLeft,BottomLeft,TopRight,TopLeft,834,782,483,1,1,1,1,0,PROBE
Human,EZ_09,2017-10-05,10:49:23,Exp,4,33,1,TopLeft,TopRight,BottomRight,TopLeft,TopRight,BottomRight,702,396,619,1,1,1,1,0,PROBE
Human,EZ_09,2017-10-05,10:49:27,Exp,4,34,12,BottomLeft,TopLeft,TopRight,BottomLeft,TopLeft,TopRight,779,405,443,1,1,1,1,0,BASE
Human,EZ_09,2017-10-05,10:49:32,Exp,4,35,2,TopLeft,BottomLeft,TopRight,TopLeft,BottomLeft,TopRight,692,810,495,1,1,1,1,0,BASE
Human,EZ_09,2017-10-05,10:49:37,Exp,4,36,11,TopRight,BottomRight,BottomLeft,TopRight,BottomRight,BottomLeft,610,399,787,1,1,1,1,0,BASE
Human,EZ_09,2017-10-05,10:49:41,Exp,4,37,8,TopRight,BottomLeft,TopLeft,TopRight,BottomLeft,TopLeft,423,401,499,1,1,1,1,0,BASE
Human,EZ_09,2017-10-05,10:49:46,Exp,4,38,0,TopLeft,TopRight,BottomLeft,TopLeft,TopRight,BottomLeft,446,471,618,1,1,1,1,0,PROBE
Human,EZ_09,2017-10-05,10:49:50,Exp,4,39,23,BottomRight,BottomLeft,TopRight,BottomRight,BottomLeft,TopRight,436,399,443,1,1,1,1,0,BASE
Human,EZ_09,2017-10-05,10:49:55,Exp,4,40,5,TopLeft,BottomRight,BottomLeft,TopLeft,BottomRight,BottomLeft,413,396,619,1,1,1,1,0,PROBE
Human,EZ_09,2017-10-05,10:49:59,Exp,4,41,22,BottomRight,BottomLeft,TopLeft,BottomRight,BottomLeft,TopLeft,432,393,464,1,1,1,1,0,BASE
Human,EZ_09,2017-10-05,10:50:04,Exp,4,42,19,BottomRight,TopLeft,BottomLeft,BottomRight,TopLeft,BottomLeft,555,419,636,1,1,1,1,0,BASE
Human,EZ_09,2017-10-05,10:50:09,Exp,4,43,13,BottomLeft,TopLeft,BottomRight,BottomLeft,TopLeft,BottomRight,604,757,631,1,1,1,1,0,BASE
Human,EZ_09,2017-10-05,10:50:26,Exp,4,44,21,BottomRight,TopRight,BottomLeft,BottomRight,TopRight,BottomLeft,7557,480,1626,1,1,1,1,0,PROBE
Human,EZ_09,2017-10-05,10:50:40,Exp,4,45,3,TopLeft,BottomLeft,BottomRight,TopLeft,BottomLeft,BottomRight,432,433,942,1,1,1,1,0,BASE
Human,EZ_09,2017-10-05,10:51:04,Exp,4,46,7,TopRight,TopLeft,BottomRight,TopRight,TopLeft,BottomRight,4265,499,3463,1,1,1,1,0,PROBE
Human,EZ_09,2017-10-05,10:51:11,Exp,4,47,9,TopRight,BottomLeft,BottomRight,TopRight,BottomLeft,BottomRight,501,399,619,1,1,1,1,0,PROBE
Human,EZ_09,2017-10-05,10:51:24,Exp,4,48,15,BottomLeft,TopRight,BottomRight,BottomLeft,TopRight,BottomRight,970,445,618,1,1,1,1,0,PROBE
Human,EZ_10,2017-10-17,9:41:25,Exp,1,1,16,BottomLeft,BottomRight,TopLeft,BottomLeft,BottomRight,TopLeft,2437,1290,1208,1,1,1,1,0,BASE
Human,EZ_10,2017-10-17,9:41:32,Exp,1,2,12,BottomLeft,TopLeft,TopRight,BottomLeft,TopLeft,TopRight,1399,1029,1265,1,1,1,1,0,PROBE
Human,EZ_10,2017-10-17,9:41:40,Exp,1,3,17,BottomLeft,BottomRight,TopRight,BottomLeft,BottomRight,TopRight,1465,1613,1354,1,1,1,1,0,BASE
Human,EZ_10,2017-10-17,9:41:47,Exp,1,4,20,BottomRight,TopRight,TopLeft,BottomRight,TopRight,TopLeft,1386,1244,1198,1,1,1,1,0,PROBE
Human,EZ_10,2017-10-17,9:41:55,Exp,1,5,5,TopLeft,BottomRight,BottomLeft,TopLeft,BottomRight,BottomLeft,1861,1201,1456,1,1,1,1,0,PROBE
Human,EZ_10,2017-10-17,9:42:02,Exp,1,6,22,BottomRight,BottomLeft,TopLeft,BottomRight,BottomLeft,TopLeft,1257,1186,1078,1,1,1,1,0,BASE
Human,EZ_10,2017-10-17,9:42:10,Exp,1,7,21,BottomRight,TopRight,BottomLeft,BottomRight,TopRight,BottomLeft,1574,1960,1282,1,1,1,1,0,PROBE
Human,EZ_10,2017-10-17,9:42:17,Exp,1,8,13,BottomLeft,TopLeft,BottomRight,BottomLeft,TopLeft,BottomRight,1391,1104,1403,1,1,1,1,0,BASE
Human,EZ_10,2017-10-17,9:42:24,Exp,1,9,8,TopRight,BottomLeft,TopLeft,TopRight,BottomLeft,TopLeft,1479,1141,1483,1,1,1,1,0,BASE
Human,EZ_10,2017-10-17,9:42:31,Exp,1,10,15,BottomLeft,TopRight,BottomRight,BottomLeft,TopRight,BottomRight,1238,1118,1418,1,1,1,1,0,BASE
Human,EZ_10,2017-10-17,9:42:38,Exp,1,11,23,BottomRight,BottomLeft,TopRight,BottomRight,BottomLeft,TopRight,1266,1185,1037,1,1,1,1,0,BASE
Human,EZ_10,2017-10-17,9:42:44,Exp,1,12,18,BottomRight,TopLeft,TopRight,BottomRight,TopLeft,TopRight,1122,1001,1139,1,1,1,1,0,BASE
Human,EZ_10,2017-10-17,9:42:52,Exp,1,13,7,TopRight,TopLeft,BottomRight,TopRight,TopLeft,BottomRight,1301,1113,1420,1,1,1,1,0,PROBE
Human,EZ_10,2017-10-17,9:42:59,Exp,1,14,6,TopRight,TopLeft,BottomLeft,TopRight,TopLeft,BottomLeft,1581,1155,1220,1,1,1,1,0,BASE
Human,EZ_10,2017-10-17,9:43:06,Exp,1,15,2,TopLeft,BottomLeft,TopRight,TopLeft,BottomLeft,TopRight,1625,1155,1160,1,1,1,1,0,PROBE
Human,EZ_10,2017-10-17,9:43:13,Exp,1,16,10,TopRight,BottomRight,TopLeft,TopRight,BottomRight,TopLeft,1479,986,1141,1,1,1,1,0,PROBE
Human,EZ_10,2017-10-17,9:43:20,Exp,1,17,11,TopRight,BottomRight,BottomLeft,TopRight,BottomRight,BottomLeft,1098,1033,1368,1,1,1,1,0,BASE
Human,EZ_10,2017-10-17,9:43:27,Exp,1,18,9,TopRight,BottomLeft,BottomRight,TopRight,BottomLeft,BottomRight,1251,1008,1262,1,1,1,1,0,PROBE
Human,EZ_10,2017-10-17,9:43:34,Exp,1,19,1,TopLeft,TopRight,BottomRight,TopLeft,TopRight,BottomRight,1141,1688,1316,1,1,1,1,0,PROBE
Human,EZ_10,2017-10-17,9:43:41,Exp,1,20,3,TopLeft,BottomLeft,BottomRight,TopLeft,BottomLeft,BottomRight,1361,1230,1439,1,1,1,1,0,BASE
Human,EZ_10,2017-10-17,9:43:48,Exp,1,21,4,TopLeft,BottomRight,TopRight,TopLeft,BottomRight,TopRight,1218,906,1115,1,1,1,1,0,PROBE
Human,EZ_10,2017-10-17,9:43:56,Exp,1,22,19,BottomRight,TopLeft,BottomLeft,BottomRight,TopLeft,BottomLeft,2374,1027,1188,1,1,1,1,0,PROBE
Human,EZ_10,2017-10-17,9:44:03,Exp,1,23,14,BottomLeft,TopRight,TopLeft,BottomLeft,TopRight,TopLeft,1082,1392,1301,1,1,1,1,0,BASE
Human,EZ_10,2017-10-17,9:44:09,Exp,1,24,0,TopLeft,TopRight,BottomLeft,TopLeft,TopRight,BottomLeft,983,964,1237,1,1,1,1,0,PROBE
Human,EZ_10,2017-10-17,9:44:16,Exp,1,25,9,TopRight,BottomLeft,BottomRight,TopRight,BottomLeft,BottomRight,1116,925,1370,1,1,1,1,0,BASE
Human,EZ_10,2017-10-17,9:44:23,Exp,1,26,19,BottomRight,TopLeft,BottomLeft,BottomRight,TopLeft,BottomLeft,1315,872,1218,1,1,1,1,0,PROBE
Human,EZ_10,2017-10-17,9:44:29,Exp,1,27,18,BottomRight,TopLeft,TopRight,BottomRight,TopLeft,TopRight,1119,834,1242,1,1,1,1,0,PROBE
Human,EZ_10,2017-10-17,9:44:36,Exp,1,28,3,TopLeft,BottomLeft,BottomRight,TopLeft,BottomLeft,BottomRight,994,972,1334,1,1,1,1,0,PROBE
Human,EZ_10,2017-10-17,9:44:43,Exp,1,29,1,TopLeft,TopRight,BottomRight,TopLeft,TopRight,BottomRight,987,1496,1313,1,1,1,1,0,BASE
Human,EZ_10,2017-10-17,9:44:49,Exp,1,30,4,TopLeft,BottomRight,TopRight,TopLeft,BottomRight,TopRight,983,1050,1038,1,1,1,1,0,BASE
Human,EZ_10,2017-10-17,9:44:56,Exp,1,31,21,BottomRight,TopRight,BottomLeft,BottomRight,TopRight,BottomLeft,1500,1022,1234,1,1,1,1,0,PROBE
Human,EZ_10,2017-10-17,9:45:03,Exp,1,32,7,TopRight,TopLeft,BottomRight,TopRight,TopLeft,BottomRight,1466,990,1236,1,1,1,1,0,PROBE
Human,EZ_10,2017-10-17,9:45:10,Exp,1,33,10,TopRight,BottomRight,TopLeft,TopRight,BottomRight,TopLeft,1206,1031,1200,1,1,1,1,0,BASE
Human,EZ_10,2017-10-17,9:45:17,Exp,1,34,0,TopLeft,TopRight,BottomLeft,TopLeft,TopRight,BottomLeft,1405,1194,1230,1,1,1,1,0,PROBE
Human,EZ_10,2017-10-17,9:45:24,Exp,1,35,22,BottomRight,BottomLeft,TopLeft,BottomRight,BottomLeft,TopLeft,1410,987,1177,1,1,1,1,0,PROBE
Human,EZ_10,2017-10-17,9:45:31,Exp,1,36,11,TopRight,BottomRight,BottomLeft,TopRight,BottomRight,BottomLeft,1555,938,1235,1,1,1,1,0,PROBE
Human,EZ_10,2017-10-17,9:45:37,Exp,1,37,5,TopLeft,BottomRight,BottomLeft,TopLeft,BottomRight,BottomLeft,1085,1022,1250,1,1,1,1,0,BASE
Human,EZ_10,2017-10-17,9:45:44,Exp,1,38,17,BottomLeft,BottomRight,TopRight,BottomLeft,BottomRight,TopRight,1226,1007,1093,1,1,1,1,0,PROBE
Human,EZ_10,2017-10-17,9:45:52,Exp,1,39,16,BottomLeft,BottomRight,TopLeft,BottomLeft,BottomRight,TopLeft,911,1769,2125,1,1,1,1,0,BASE
Human,EZ_10,2017-10-17,9:45:59,Exp,1,40,13,BottomLeft,TopLeft,BottomRight,BottomLeft,TopLeft,BottomRight,1717,840,1194,1,1,1,1,0,BASE
Human,EZ_10,2017-10-17,9:46:08,Exp,1,41,15,BottomLeft,TopRight,BottomRight,BottomLeft,TopRight,BottomRight,1223,1065,3282,1,1,1,1,0,BASE
Human,EZ_10,2017-10-17,9:46:16,Exp,1,42,2,TopLeft,BottomLeft,TopRight,TopLeft,BottomLeft,TopRight,1046,978,2214,1,1,1,1,0,BASE
Human,EZ_10,2017-10-17,9:46:23,Exp,1,43,12,BottomLeft,TopLeft,TopRight,BottomLeft,TopLeft,TopRight,1181,876,1073,1,1,1,1,0,PROBE
Human,EZ_10,2017-10-17,9:46:29,Exp,1,44,23,BottomRight,BottomLeft,TopRight,BottomRight,BottomLeft,TopRight,919,1783,1139,1,1,1,1,0,BASE
Human,EZ_10,2017-10-17,9:46:36,Exp,1,45,6,TopRight,TopLeft,BottomLeft,TopRight,TopLeft,BottomLeft,1137,1152,1302,1,1,1,1,0,BASE
Human,EZ_10,2017-10-17,9:46:43,Exp,1,46,8,TopRight,BottomLeft,TopLeft,TopRight,BottomLeft,TopLeft,1416,776,1023,1,1,1,1,0,PROBE
Human,EZ_10,2017-10-17,9:46:50,Exp,1,47,14,BottomLeft,TopRight,TopLeft,BottomLeft,TopRight,TopLeft,1382,966,1041,1,1,1,1,0,BASE
Human,EZ_10,2017-10-17,9:46:57,Exp,1,48,20,BottomRight,TopRight,TopLeft,BottomRight,TopRight,TopLeft,1594,979,1465,1,1,1,1,0,PROBE
Human,EZ_10,2017-10-17,9:47:04,Exp,2,1,15,BottomLeft,TopRight,BottomRight,BottomLeft,TopRight,BottomRight,1083,977,1179,1,1,1,1,0,BASE
Human,EZ_10,2017-10-17,9:47:10,Exp,2,2,17,BottomLeft,BottomRight,TopRight,BottomLeft,BottomRight,TopRight,1128,988,1141,1,1,1,1,0,PROBE
Human,EZ_10,2017-10-17,9:47:17,Exp,2,3,10,TopRight,BottomRight,TopLeft,TopRight,BottomRight,TopLeft,1507,894,973,1,1,1,1,0,PROBE
Human,EZ_10,2017-10-17,9:47:25,Exp,2,4,0,TopLeft,TopRight,BottomLeft,TopLeft,TopRight,BottomLeft,1021,1242,1683,1,1,1,1,0,BASE
Human,EZ_10,2017-10-17,9:47:32,Exp,2,5,6,TopRight,TopLeft,BottomLeft,TopRight,TopLeft,BottomLeft,1067,1058,1422,1,1,1,1,0,BASE
Human,EZ_10,2017-10-17,9:47:38,Exp,2,6,8,TopRight,BottomLeft,TopLeft,TopRight,BottomLeft,TopLeft,971,996,1141,1,1,1,1,0,BASE
Human,EZ_10,2017-10-17,9:47:45,Exp,2,7,21,BottomRight,TopRight,BottomLeft,BottomRight,TopRight,BottomLeft,1694,858,1204,1,1,1,1,0,PROBE
Human,EZ_10,2017-10-17,9:47:51,Exp,2,8,4,TopLeft,BottomRight,TopRight,TopLeft,BottomRight,TopRight,1174,877,955,1,1,1,1,0,BASE
Human,EZ_10,2017-10-17,9:47:58,Exp,2,9,5,TopLeft,BottomRight,BottomLeft,TopLeft,BottomRight,BottomLeft,1046,1204,1706,1,1,1,1,0,BASE
Human,EZ_10,2017-10-17,9:48:05,Exp,2,10,16,BottomLeft,BottomRight,TopLeft,BottomLeft,BottomRight,TopLeft,1096,975,889,1,1,1,1,0,PROBE
Human,EZ_10,2017-10-17,9:48:11,Exp,2,11,9,TopRight,BottomLeft,BottomRight,TopRight,BottomLeft,BottomRight,1099,896,1156,1,1,1,1,0,BASE
Human,EZ_10,2017-10-17,9:48:17,Exp,2,12,18,BottomRight,TopLeft,TopRight,BottomRight,TopLeft,TopRight,1050,839,1042,1,1,1,1,0,BASE
Human,EZ_10,2017-10-17,9:48:24,Exp,2,13,1,TopLeft,TopRight,BottomRight,TopLeft,TopRight,BottomRight,1114,1323,1277,1,1,1,1,0,PROBE
Human,EZ_10,2017-10-17,9:48:32,Exp,2,14,19,BottomRight,TopLeft,BottomLeft,BottomRight,TopLeft,BottomLeft,1935,950,1224,1,1,1,1,0,PROBE
Human,EZ_10,2017-10-17,9:48:39,Exp,2,15,22,BottomRight,BottomLeft,TopLeft,BottomRight,BottomLeft,TopLeft,1286,932,2145,1,1,1,1,0,BASE
Human,EZ_10,2017-10-17,9:48:46,Exp,2,16,12,BottomLeft,TopLeft,TopRight,BottomLeft,TopLeft,TopRight,965,891,1383,1,1,1,1,0,BASE
Human,EZ_10,2017-10-17,9:48:53,Exp,2,17,13,BottomLeft,TopLeft,BottomRight,BottomLeft,TopLeft,BottomRight,1198,823,1325,1,1,1,1,0,PROBE
Human,EZ_10,2017-10-17,9:49:00,Exp,2,18,7,TopRight,TopLeft,BottomRight,TopRight,TopLeft,BottomRight,1101,1247,1310,1,1,1,1,0,PROBE
Human,EZ_10,2017-10-17,9:49:07,Exp,2,19,11,TopRight,BottomRight,BottomLeft,TopRight,BottomRight,BottomLeft,1090,979,1166,1,1,1,1,0,PROBE
Human,EZ_10,2017-10-17,9:49:13,Exp,2,20,23,BottomRight,BottomLeft,TopRight,BottomRight,BottomLeft,TopRight,1382,900,1073,1,1,1,1,0,PROBE
Human,EZ_10,2017-10-17,9:49:22,Exp,2,21,20,BottomRight,TopRight,TopLeft,BottomRight,TopRight,TopLeft,1095,1009,975,1,1,1,1,0,PROBE
Human,EZ_10,2017-10-17,9:49:28,Exp,2,22,14,BottomLeft,TopRight,TopLeft,BottomLeft,TopRight,TopLeft,1058,930,1149,1,1,1,1,0,PROBE
Human,EZ_10,2017-10-17,9:49:36,Exp,2,23,3,TopLeft,BottomLeft,BottomRight,TopLeft,BottomLeft,BottomRight,1105,969,1385,1,1,1,1,0,BASE
Human,EZ_10,2017-10-17,9:49:43,Exp,2,24,2,TopLeft,BottomLeft,TopRight,TopLeft,BottomLeft,TopRight,923,882,1350,1,1,1,1,0,BASE
Human,EZ_10,2017-10-17,9:49:49,Exp,2,25,2,TopLeft,BottomLeft,TopRight,TopLeft,BottomLeft,TopRight,1072,948,1140,1,1,1,1,0,BASE
Human,EZ_10,2017-10-17,9:49:56,Exp,2,26,22,BottomRight,BottomLeft,TopLeft,BottomRight,BottomLeft,TopLeft,1258,1102,885,1,1,1,1,0,PROBE
Human,EZ_10,2017-10-17,9:50:03,Exp,2,27,6,TopRight,TopLeft,BottomLeft,TopRight,TopLeft,BottomLeft,996,1052,1339,1,1,1,1,0,BASE
Human,EZ_10,2017-10-17,9:50:10,Exp,2,28,9,TopRight,BottomLeft,BottomRight,TopRight,BottomLeft,BottomRight,1011,1032,1343,1,1,1,1,0,BASE
Human,EZ_10,2017-10-17,9:50:16,Exp,2,29,13,BottomLeft,TopLeft,BottomRight,BottomLeft,TopLeft,BottomRight,1078,870,1266,1,1,1,1,0,PROBE
Human,EZ_10,2017-10-17,9:50:24,Exp,2,30,14,BottomLeft,TopRight,TopLeft,BottomLeft,TopRight,TopLeft,2247,985,1241,1,1,1,1,0,PROBE
Human,EZ_10,2017-10-17,9:50:31,Exp,2,31,23,BottomRight,BottomLeft,TopRight,BottomRight,BottomLeft,TopRight,1135,963,1273,1,1,1,1,0,BASE
Human,EZ_10,2017-10-17,9:50:39,Exp,2,32,19,BottomRight,TopLeft,BottomLeft,BottomRight,TopLeft,BottomLeft,1708,982,1194,1,1,1,1,0,PROBE
Human,EZ_10,2017-10-17,9:50:45,Exp,2,33,10,TopRight,BottomRight,TopLeft,TopRight,BottomRight,TopLeft,1188,978,986,1,1,1,1,0,BASE
Human,EZ_10,2017-10-17,9:50:52,Exp,2,34,12,BottomLeft,TopLeft,TopRight,BottomLeft,TopLeft,TopRight,1345,819,1174,1,1,1,1,0,PROBE
Human,EZ_10,2017-10-17,9:50:59,Exp,2,35,0,TopLeft,TopRight,BottomLeft,TopLeft,TopRight,BottomLeft,1149,1209,1215,1,1,1,1,0,PROBE
Human,EZ_10,2017-10-17,9:51:07,Exp,2,36,8,TopRight,BottomLeft,TopLeft,TopRight,BottomLeft,TopLeft,1124,1640,1895,1,1,1,1,0,BASE
Human,EZ_10,2017-10-17,9:51:15,Exp,2,37,3,TopLeft,BottomLeft,BottomRight,TopLeft,BottomLeft,BottomRight,1166,2254,1225,1,1,1,1,0,PROBE
Human,EZ_10,2017-10-17,9:51:22,Exp,2,38,20,BottomRight,TopRight,TopLeft,BottomRight,TopRight,TopLeft,1641,1061,1318,1,1,1,1,0,PROBE
Human,EZ_10,2017-10-17,9:51:29,Exp,2,39,11,TopRight,BottomRight,BottomLeft,TopRight,BottomRight,BottomLeft,1042,1079,1372,1,1,1,1,0,BASE
Human,EZ_10,2017-10-17,9:51:36,Exp,2,40,18,BottomRight,TopLeft,TopRight,BottomRight,TopLeft,TopRight,1197,888,1183,1,1,1,1,0,PROBE
Human,EZ_10,2017-10-17,9:51:43,Exp,2,41,4,TopLeft,BottomRight,TopRight,TopLeft,BottomRight,TopRight,1481,1396,873,1,1,1,1,0,BASE
Human,EZ_10,2017-10-17,9:51:50,Exp,2,42,1,TopLeft,TopRight,BottomRight,TopLeft,TopRight,BottomRight,1232,993,1273,1,1,1,1,0,PROBE
Human,EZ_10,2017-10-17,9:51:57,Exp,2,43,7,TopRight,TopLeft,BottomRight,TopRight,TopLeft,BottomRight,1152,1249,1317,1,1,1,1,0,PROBE
Human,EZ_10,2017-10-17,9:52:05,Exp,2,44,21,BottomRight,TopRight,BottomLeft,BottomRight,TopRight,BottomLeft,2284,950,1226,1,1,1,1,0,BASE
Human,EZ_10,2017-10-17,9:52:11,Exp,2,45,16,BottomLeft,BottomRight,TopLeft,BottomLeft,BottomRight,TopLeft,1107,995,1089,1,1,1,1,0,BASE
Human,EZ_10,2017-10-17,9:52:18,Exp,2,46,17,BottomLeft,BottomRight,TopRight,BottomLeft,BottomRight,TopRight,969,1427,1043,1,1,1,1,0,BASE
Human,EZ_10,2017-10-17,9:52:26,Exp,2,47,5,TopLeft,BottomRight,BottomLeft,TopLeft,BottomRight,BottomLeft,2067,1124,1322,1,1,1,1,0,PROBE
Human,EZ_10,2017-10-17,9:52:33,Exp,2,48,15,BottomLeft,TopRight,BottomRight,BottomLeft,TopRight,BottomRight,1001,1035,1296,1,1,1,1,0,BASE
Human,EZ_10,2017-10-17,9:52:40,Exp,3,1,13,BottomLeft,TopLeft,BottomRight,BottomLeft,TopLeft,BottomRight,1132,859,1430,1,1,1,1,0,BASE
Human,EZ_10,2017-10-17,9:52:46,Exp,3,2,19,BottomRight,TopLeft,BottomLeft,BottomRight,TopLeft,BottomLeft,1197,861,1275,1,1,1,1,0,BASE
Human,EZ_10,2017-10-17,9:52:53,Exp,3,3,11,TopRight,BottomRight,BottomLeft,TopRight,BottomRight,BottomLeft,1152,882,1364,1,1,1,1,0,BASE
Human,EZ_10,2017-10-17,9:52:59,Exp,3,4,3,TopLeft,BottomLeft,BottomRight,TopLeft,BottomLeft,BottomRight,862,950,1260,1,1,1,1,0,BASE
Human,EZ_10,2017-10-17,9:53:06,Exp,3,5,14,BottomLeft,TopRight,TopLeft,BottomLeft,TopRight,TopLeft,1003,1161,1107,1,1,1,1,0,BASE
Human,EZ_10,2017-10-17,9:53:14,Exp,3,6,8,TopRight,BottomLeft,TopLeft,TopRight,BottomLeft,TopLeft,2313,1068,866,1,1,1,1,0,BASE
Human,EZ_10,2017-10-17,9:53:21,Exp,3,7,5,TopLeft,BottomRight,BottomLeft,TopLeft,BottomRight,BottomLeft,946,914,1609,1,1,1,1,0,BASE
Human,EZ_10,2017-10-17,9:53:28,Exp,3,8,16,BottomLeft,BottomRight,TopLeft,BottomLeft,BottomRight,TopLeft,1067,1060,1405,1,1,1,1,0,PROBE
Human,EZ_10,2017-10-17,9:53:35,Exp,3,9,12,BottomLeft,TopLeft,TopRight,BottomLeft,TopLeft,TopRight,1149,1162,1197,1,1,1,1,0,PROBE
Human,EZ_10,2017-10-17,9:53:42,Exp,3,10,4,TopLeft,BottomRight,TopRight,TopLeft,BottomRight,TopRight,1114,1204,1448,1,1,1,1,0,PROBE
Human,EZ_10,2017-10-17,9:53:49,Exp,3,11,21,BottomRight,TopRight,BottomLeft,BottomRight,TopRight,BottomLeft,1782,1043,1287,1,1,1,1,0,PROBE
Human,EZ_10,2017-10-17,9:53:55,Exp,3,12,23,BottomRight,BottomLeft,TopRight,BottomRight,BottomLeft,TopRight,912,792,1011,1,1,1,1,0,BASE
Human,EZ_10,2017-10-17,9:54:02,Exp,3,13,15,BottomLeft,TopRight,BottomRight,BottomLeft,TopRight,BottomRight,1044,1023,1222,1,1,1,1,0,PROBE
Human,EZ_10,2017-10-17,9:54:09,Exp,3,14,9,TopRight,BottomLeft,BottomRight,TopRight,BottomLeft,BottomRight,1600,998,1278,1,1,1,1,0,BASE
Human,EZ_10,2017-10-17,9:54:17,Exp,3,15,2,TopLeft,BottomLeft,TopRight,TopLeft,BottomLeft,TopRight,1033,1312,1543,1,1,1,1,0,PROBE
Human,EZ_10,2017-10-17,9:54:24,Exp,3,16,1,TopLeft,TopRight,BottomRight,TopLeft,TopRight,BottomRight,1063,1298,1475,1,1,1,1,0,PROBE
Human,EZ_10,2017-10-17,9:54:31,Exp,3,17,0,TopLeft,TopRight,BottomLeft,TopLeft,TopRight,BottomLeft,1062,1315,1279,1,1,1,1,0,PROBE
Human,EZ_10,2017-10-17,9:54:38,Exp,3,18,7,TopRight,TopLeft,BottomRight,TopRight,TopLeft,BottomRight,1255,1088,1518,1,1,1,1,0,BASE
Human,EZ_10,2017-10-17,9:54:45,Exp,3,19,6,TopRight,TopLeft,BottomLeft,TopRight,TopLeft,BottomLeft,1102,1001,1385,1,1,1,1,0,BASE
Human,EZ_10,2017-10-17,9:54:52,Exp,3,20,18,BottomRight,TopLeft,TopRight,BottomRight,TopLeft,TopRight,1361,1146,1455,1,1,1,1,0,PROBE
Human,EZ_10,2017-10-17,9:54:59,Exp,3,21,20,BottomRight,TopRight,TopLeft,BottomRight,TopRight,TopLeft,1181,996,1435,1,1,1,1,0,PROBE
Human,EZ_10,2017-10-17,9:55:07,Exp,3,22,17,BottomLeft,BottomRight,TopRight,BottomLeft,BottomRight,TopRight,2438,986,905,1,1,1,1,0,BASE
Human,EZ_10,2017-10-17,9:55:13,Exp,3,23,10,TopRight,BottomRight,TopLeft,TopRight,BottomRight,TopLeft,1167,1278,974,1,1,1,1,0,PROBE
Human,EZ_10,2017-10-17,9:55:20,Exp,3,24,22,BottomRight,BottomLeft,TopLeft,BottomRight,BottomLeft,TopLeft,902,941,1354,1,1,1,1,0,PROBE
Human,EZ_10,2017-10-17,9:55:27,Exp,3,25,5,TopLeft,BottomRight,BottomLeft,TopLeft,BottomRight,BottomLeft,1321,954,1250,1,1,1,1,0,PROBE
Human,EZ_10,2017-10-17,9:55:34,Exp,3,26,22,BottomRight,BottomLeft,TopLeft,BottomRight,BottomLeft,TopLeft,1154,1562,1025,1,1,1,1,0,PROBE
Human,EZ_10,2017-10-17,9:55:41,Exp,3,27,21,BottomRight,TopRight,BottomLeft,BottomRight,TopRight,BottomLeft,1208,1783,1200,1,1,1,1,0,PROBE
Human,EZ_10,2017-10-17,9:55:54,Exp,3,28,18,BottomRight,TopLeft,TopRight,BottomRight,TopLeft,TopRight,7093,1000,938,1,1,1,1,0,BASE
Human,EZ_10,2017-10-17,9:56:01,Exp,3,29,0,TopLeft,TopRight,BottomLeft,TopLeft,TopRight,BottomLeft,813,796,1647,1,1,1,1,0,BASE
Human,EZ_10,2017-10-17,9:56:07,Exp,3,30,20,BottomRight,TopRight,TopLeft,BottomRight,TopRight,TopLeft,1096,782,921,1,1,1,1,0,PROBE
Human,EZ_10,2017-10-17,9:56:14,Exp,3,31,9,TopRight,BottomLeft,BottomRight,TopRight,BottomLeft,BottomRight,848,1218,1424,1,1,1,1,0,BASE
Human,EZ_10,2017-10-17,9:56:21,Exp,3,32,10,TopRight,BottomRight,TopLeft,TopRight,BottomRight,TopLeft,862,1774,1021,1,1,1,1,0,BASE
Human,EZ_10,2017-10-17,9:56:27,Exp,3,33,16,BottomLeft,BottomRight,TopLeft,BottomLeft,BottomRight,TopLeft,1070,967,1211,1,1,1,1,0,BASE
Human,EZ_10,2017-10-17,9:56:35,Exp,3,34,7,TopRight,TopLeft,BottomRight,TopRight,TopLeft,BottomRight,1446,1080,1867,1,1,1,1,0,PROBE
Human,EZ_10,2017-10-17,9:56:41,Exp,3,35,4,TopLeft,BottomRight,TopRight,TopLeft,BottomRight,TopRight,1080,1046,985,1,1,1,1,0,PROBE
Human,EZ_10,2017-10-17,9:56:48,Exp,3,36,14,BottomLeft,TopRight,TopLeft,BottomLeft,TopRight,TopLeft,852,747,1369,1,1,1,1,0,PROBE
Human,EZ_10,2017-10-17,9:56:54,Exp,3,37,11,TopRight,BottomRight,BottomLeft,TopRight,BottomRight,BottomLeft,781,872,1330,1,1,1,1,0,BASE
Human,EZ_10,2017-10-17,9:57:00,Exp,3,38,17,BottomLeft,BottomRight,TopRight,BottomLeft,BottomRight,TopRight,996,1075,842,1,1,1,1,0,PROBE
Human,EZ_10,2017-10-17,9:57:07,Exp,3,39,19,BottomRight,TopLeft,BottomLeft,BottomRight,TopLeft,BottomLeft,1418,1147,1161,1,1,1,1,0,PROBE
Human,EZ_10,2017-10-17,9:57:14,Exp,3,40,8,TopRight,BottomLeft,TopLeft,TopRight,BottomLeft,TopLeft,877,799,891,1,1,1,1,0,BASE
Human,EZ_10,2017-10-17,9:57:20,Exp,3,41,6,TopRight,TopLeft,BottomLeft,TopRight,TopLeft,BottomLeft,1237,892,1129,1,1,1,1,0,PROBE
Human,EZ_10,2017-10-17,9:57:27,Exp,3,42,12,BottomLeft,TopLeft,TopRight,BottomLeft,TopLeft,TopRight,1065,791,1267,1,1,1,1,0,PROBE
Human,EZ_10,2017-10-17,9:57:35,Exp,3,43,2,TopLeft,BottomLeft,TopRight,TopLeft,BottomLeft,TopRight,1116,1140,1261,1,1,1,1,0,BASE
Human,EZ_10,2017-10-17,9:57:44,Exp,3,44,13,BottomLeft,TopLeft,BottomRight,BottomLeft,TopLeft,BottomRight,2846,980,1627,1,1,1,1,0,BASE
Human,EZ_10,2017-10-17,9:58:08,Exp,3,45,3,TopLeft,BottomLeft,BottomRight,TopLeft,BottomLeft,BottomRight,1067,877,1153,1,1,1,1,0,BASE
Human,EZ_10,2017-10-17,9:58:15,Exp,3,46,15,BottomLeft,TopRight,BottomRight,BottomLeft,TopRight,BottomRight,1117,963,1499,1,1,1,1,0,BASE
Human,EZ_10,2017-10-17,9:58:22,Exp,3,47,23,BottomRight,BottomLeft,TopRight,BottomRight,BottomLeft,TopRight,1218,1072,1287,1,1,1,1,0,PROBE
Human,EZ_10,2017-10-17,9:58:29,Exp,3,48,1,TopLeft,TopRight,BottomRight,TopLeft,TopRight,BottomRight,1052,1225,1470,1,1,1,1,0,BASE
Human,EZ_10,2017-10-17,9:58:36,Exp,4,1,6,TopRight,TopLeft,BottomLeft,TopRight,TopLeft,BottomLeft,1288,1072,1578,1,1,1,1,0,BASE
Human,EZ_10,2017-10-17,9:58:45,Exp,4,2,11,TopRight,BottomRight,BottomLeft,TopRight,BottomRight,BottomLeft,2019,940,1256,1,1,1,1,0,PROBE
Human,EZ_10,2017-10-17,9:58:52,Exp,4,3,23,BottomRight,BottomLeft,TopRight,BottomRight,BottomLeft,TopRight,1234,841,1395,1,1,1,1,0,PROBE
Human,EZ_10,2017-10-17,9:58:59,Exp,4,4,13,BottomLeft,TopLeft,BottomRight,BottomLeft,TopLeft,BottomRight,1168,982,1667,1,1,1,1,0,BASE
Human,EZ_10,2017-10-17,9:59:07,Exp,4,5,10,TopRight,BottomRight,TopLeft,TopRight,BottomRight,TopLeft,1068,1037,1027,1,1,1,1,0,BASE
Human,EZ_10,2017-10-17,9:59:13,Exp,4,6,18,BottomRight,TopLeft,TopRight,BottomRight,TopLeft,TopRight,1058,860,1095,1,1,1,1,0,PROBE
Human,EZ_10,2017-10-17,9:59:21,Exp,4,7,0,TopLeft,TopRight,BottomLeft,TopLeft,TopRight,BottomLeft,909,930,1983,1,1,1,1,0,BASE
Human,EZ_10,2017-10-17,9:59:28,Exp,4,8,15,BottomLeft,TopRight,BottomRight,BottomLeft,TopRight,BottomRight,1153,998,1264,1,1,1,1,0,BASE
Human,EZ_10,2017-10-17,9:59:35,Exp,4,9,20,BottomRight,TopRight,TopLeft,BottomRight,TopRight,TopLeft,1213,995,1125,1,1,1,1,0,PROBE
Human,EZ_10,2017-10-17,9:59:42,Exp,4,10,16,BottomLeft,BottomRight,TopLeft,BottomLeft,BottomRight,TopLeft,1025,1032,1379,1,1,1,1,0,BASE
Human,EZ_10,2017-10-17,9:59:49,Exp,4,11,19,BottomRight,TopLeft,BottomLeft,BottomRight,TopLeft,BottomLeft,1755,923,1147,1,1,1,1,0,PROBE
Human,EZ_10,2017-10-17,9:59:56,Exp,4,12,4,TopLeft,BottomRight,TopRight,TopLeft,BottomRight,TopRight,1132,929,1216,1,1,1,1,0,BASE
Human,EZ_10,2017-10-17,10:00:02,Exp,4,13,22,BottomRight,BottomLeft,TopLeft,BottomRight,BottomLeft,TopLeft,1246,925,906,1,1,1,1,0,PROBE
Human,EZ_10,2017-10-17,10:00:10,Exp,4,14,14,BottomLeft,TopRight,TopLeft,BottomLeft,TopRight,TopLeft,2014,1150,1277,1,1,1,1,0,BASE
Human,EZ_10,2017-10-17,10:00:17,Exp,4,15,21,BottomRight,TopRight,BottomLeft,BottomRight,TopRight,BottomLeft,1086,1069,1498,1,1,1,1,0,BASE
Human,EZ_10,2017-10-17,10:00:24,Exp,4,16,1,TopLeft,TopRight,BottomRight,TopLeft,TopRight,BottomRight,1324,1140,1433,1,1,1,1,0,BASE
Human,EZ_10,2017-10-17,10:00:31,Exp,4,17,3,TopLeft,BottomLeft,BottomRight,TopLeft,BottomLeft,BottomRight,894,886,1242,1,1,1,1,0,PROBE
Human,EZ_10,2017-10-17,10:00:37,Exp,4,18,7,TopRight,TopLeft,BottomRight,TopRight,TopLeft,BottomRight,1132,758,1460,1,1,1,1,0,PROBE
Human,EZ_10,2017-10-17,10:00:44,Exp,4,19,5,TopLeft,BottomRight,BottomLeft,TopLeft,BottomRight,BottomLeft,1126,1127,1352,1,1,1,1,0,PROBE
Human,EZ_10,2017-10-17,10:00:51,Exp,4,20,17,BottomLeft,BottomRight,TopRight,BottomLeft,BottomRight,TopRight,1109,1484,1332,1,1,1,1,0,PROBE
Human,EZ_10,2017-10-17,10:00:58,Exp,4,21,12,BottomLeft,TopLeft,TopRight,BottomLeft,TopLeft,TopRight,1141,1206,1409,1,1,1,1,0,PROBE
Human,EZ_10,2017-10-17,10:01:06,Exp,4,22,9,TopRight,BottomLeft,BottomRight,TopRight,BottomLeft,BottomRight,1418,1016,1519,1,1,1,1,0,BASE
Human,EZ_10,2017-10-17,10:01:12,Exp,4,23,8,TopRight,BottomLeft,TopLeft,TopRight,BottomLeft,TopLeft,907,906,1146,1,1,1,1,0,PROBE
Human,EZ_10,2017-10-17,10:01:19,Exp,4,24,2,TopLeft,BottomLeft,TopRight,TopLeft,BottomLeft,TopRight,918,1070,1510,1,1,1,1,0,BASE
Human,EZ_10,2017-10-17,10:01:26,Exp,4,25,4,TopLeft,BottomRight,TopRight,TopLeft,BottomRight,TopRight,1015,1251,1143,1,1,1,1,0,BASE
Human,EZ_10,2017-10-17,10:01:33,Exp,4,26,11,TopRight,BottomRight,BottomLeft,TopRight,BottomRight,BottomLeft,1040,1078,1423,1,1,1,1,0,PROBE
Human,EZ_10,2017-10-17,10:01:41,Exp,4,27,20,BottomRight,TopRight,TopLeft,BottomRight,TopRight,TopLeft,2503,1059,1267,1,1,1,1,0,PROBE
Human,EZ_10,2017-10-17,10:01:49,Exp,4,28,9,TopRight,BottomLeft,BottomRight,TopRight,BottomLeft,BottomRight,1512,996,1384,1,1,1,1,0,BASE
Human,EZ_10,2017-10-17,10:01:56,Exp,4,29,2,TopLeft,BottomLeft,TopRight,TopLeft,BottomLeft,TopRight,1076,1065,1533,1,1,1,1,0,BASE
Human,EZ_10,2017-10-17,10:02:03,Exp,4,30,23,BottomRight,BottomLeft,TopRight,BottomRight,BottomLeft,TopRight,1257,1037,1345,1,1,1,1,0,BASE
Human,EZ_10,2017-10-17,10:02:10,Exp,4,31,6,TopRight,TopLeft,BottomLeft,TopRight,TopLeft,BottomLeft,1251,1176,1234,1,1,1,1,0,PROBE
Human,EZ_10,2017-10-17,10:02:17,Exp,4,32,3,TopLeft,BottomLeft,BottomRight,TopLeft,BottomLeft,BottomRight,1157,973,1130,1,1,1,1,0,PROBE
Human,EZ_10,2017-10-17,10:02:24,Exp,4,33,7,TopRight,TopLeft,BottomRight,TopRight,TopLeft,BottomRight,1094,979,1537,1,1,1,1,0,BASE
Human,EZ_10,2017-10-17,10:02:31,Exp,4,34,0,TopLeft,TopRight,BottomLeft,TopLeft,TopRight,BottomLeft,1032,1224,1216,1,1,1,1,0,BASE
Human,EZ_10,2017-10-17,10:02:38,Exp,4,35,17,BottomLeft,BottomRight,TopRight,BottomLeft,BottomRight,TopRight,1169,1121,1317,1,1,1,1,0,BASE
Human,EZ_10,2017-10-17,10:02:45,Exp,4,36,8,TopRight,BottomLeft,TopLeft,TopRight,BottomLeft,TopLeft,1240,1121,1216,1,1,1,1,0,BASE
Human,EZ_10,2017-10-17,10:02:52,Exp,4,37,5,TopLeft,BottomRight,BottomLeft,TopLeft,BottomRight,BottomLeft,1101,930,1389,1,1,1,1,0,BASE
Human,EZ_10,2017-10-17,10:02:59,Exp,4,38,1,TopLeft,TopRight,BottomRight,TopLeft,TopRight,BottomRight,1043,886,1738,1,1,1,1,0,PROBE
Human,EZ_10,2017-10-17,10:03:06,Exp,4,39,15,BottomLeft,TopRight,BottomRight,BottomLeft,TopRight,BottomRight,1124,1031,1592,1,1,1,1,0,PROBE
Human,EZ_10,2017-10-17,10:03:13,Exp,4,40,19,BottomRight,TopLeft,BottomLeft,BottomRight,TopLeft,BottomLeft,1348,918,1207,1,1,1,1,0,PROBE
Human,EZ_10,2017-10-17,10:03:31,Exp,4,41,21,BottomRight,TopRight,BottomLeft,BottomRight,TopRight,BottomLeft,1225,892,1197,1,1,1,1,0,PROBE
Human,EZ_10,2017-10-17,10:03:38,Exp,4,42,22,BottomRight,BottomLeft,TopLeft,BottomRight,BottomLeft,TopLeft,1244,1145,940,1,1,1,1,0,PROBE
Human,EZ_10,2017-10-17,10:03:44,Exp,4,43,16,BottomLeft,BottomRight,TopLeft,BottomLeft,BottomRight,TopLeft,1018,890,921,1,1,1,1,0,PROBE
Human,EZ_10,2017-10-17,10:03:50,Exp,4,44,10,TopRight,BottomRight,TopLeft,TopRight,BottomRight,TopLeft,995,1005,1020,1,1,1,1,0,PROBE
Human,EZ_10,2017-10-17,10:03:57,Exp,4,45,14,BottomLeft,TopRight,TopLeft,BottomLeft,TopRight,TopLeft,1102,1053,1197,1,1,1,1,0,BASE
Human,EZ_10,2017-10-17,10:04:04,Exp,4,46,13,BottomLeft,TopLeft,BottomRight,BottomLeft,TopLeft,BottomRight,1196,887,1280,1,1,1,1,0,PROBE
Human,EZ_10,2017-10-17,10:04:10,Exp,4,47,12,BottomLeft,TopLeft,TopRight,BottomLeft,TopLeft,TopRight,1033,963,1105,1,1,1,1,0,BASE
Human,EZ_10,2017-10-17,10:04:17,Exp,4,48,18,BottomRight,TopLeft,TopRight,BottomRight,TopLeft,TopRight,1344,917,1188,1,1,1,1,0,BASE
Human,EZ_102,2017-10-17,10:11:28,Exp,1,1,2,TopLeft,BottomLeft,TopRight,TopLeft,BottomLeft,TopRight,1399,686,1008,1,1,1,1,0,PROBE
Human,EZ_102,2017-10-17,10:11:33,Exp,1,2,1,TopLeft,TopRight,BottomRight,TopLeft,TopRight,BottomRight,736,735,1107,1,1,1,1,0,PROBE
Human,EZ_102,2017-10-17,10:11:39,Exp,1,3,9,TopRight,BottomLeft,BottomRight,TopRight,BottomLeft,BottomRight,829,752,1536,1,1,1,1,0,PROBE
Human,EZ_102,2017-10-17,10:11:44,Exp,1,4,10,TopRight,BottomRight,TopLeft,TopRight,BottomRight,TopLeft,745,702,619,1,1,1,1,0,PROBE
Human,EZ_102,2017-10-17,10:11:50,Exp,1,5,22,BottomRight,BottomLeft,TopLeft,BottomRight,BottomLeft,TopLeft,846,764,683,1,1,1,1,0,BASE
Human,EZ_102,2017-10-17,10:11:56,Exp,1,6,21,BottomRight,TopRight,BottomLeft,BottomRight,TopRight,BottomLeft,1077,685,1087,1,1,1,1,0,PROBE
Human,EZ_102,2017-10-17,10:12:01,Exp,1,7,17,BottomLeft,BottomRight,TopRight,BottomLeft,BottomRight,TopRight,740,701,663,1,1,1,1,0,BASE
Human,EZ_102,2017-10-17,10:12:07,Exp,1,8,7,TopRight,TopLeft,BottomRight,TopRight,TopLeft,BottomRight,831,929,1062,1,1,1,1,0,BASE
Human,EZ_102,2017-10-17,10:12:13,Exp,1,9,13,BottomLeft,TopLeft,BottomRight,BottomLeft,TopLeft,BottomRight,913,752,1144,1,1,1,1,0,BASE
Human,EZ_102,2017-10-17,10:12:20,Exp,1,10,3,TopLeft,BottomLeft,BottomRight,TopLeft,BottomLeft,BottomRight,1761,936,1318,1,1,1,1,0,PROBE
Human,EZ_102,2017-10-17,10:12:26,Exp,1,11,18,BottomRight,TopLeft,TopRight,BottomRight,TopLeft,TopRight,870,941,769,1,1,1,1,0,PROBE
Human,EZ_102,2017-10-17,10:12:32,Exp,1,12,15,BottomLeft,TopRight,BottomRight,BottomLeft,TopRight,BottomRight,911,814,1108,1,1,1,1,0,BASE
Human,EZ_102,2017-10-17,10:12:36,Exp,1,13,16,BottomLeft,BottomRight,TopLeft,BottomLeft,BottomRight,TopLeft,684,758,588,1,1,1,1,0,BASE
Human,EZ_102,2017-10-17,10:12:42,Exp,1,14,19,BottomRight,TopLeft,BottomLeft,BottomRight,TopLeft,BottomLeft,1073,606,1138,1,1,1,1,0,PROBE
Human,EZ_102,2017-10-17,10:12:47,Exp,1,15,12,BottomLeft,TopLeft,TopRight,BottomLeft,TopLeft,TopRight,747,798,666,1,1,1,1,0,BASE
Human,EZ_102,2017-10-17,10:12:53,Exp,1,16,4,TopLeft,BottomRight,TopRight,TopLeft,BottomRight,TopRight,842,781,730,1,1,1,1,0,BASE
Human,EZ_102,2017-10-17,10:12:59,Exp,1,17,0,TopLeft,TopRight,BottomLeft,TopLeft,TopRight,BottomLeft,1099,665,1144,1,1,1,1,0,PROBE
Human,EZ_102,2017-10-17,10:13:05,Exp,1,18,6,TopRight,TopLeft,BottomLeft,TopRight,TopLeft,BottomLeft,834,694,1125,1,1,1,1,0,BASE
Human,EZ_102,2017-10-17,10:13:09,Exp,1,19,8,TopRight,BottomLeft,TopLeft,TopRight,BottomLeft,TopLeft,777,637,666,1,1,1,1,0,BASE
Human,EZ_102,2017-10-17,10:13:15,Exp,1,20,14,BottomLeft,TopRight,TopLeft,BottomLeft,TopRight,TopLeft,894,634,738,1,1,1,1,0,PROBE
Human,EZ_102,2017-10-17,10:13:22,Exp,1,21,23,BottomRight,BottomLeft,TopRight,BottomRight,BottomLeft,TopRight,1369,1671,800,1,1,1,1,0,PROBE
Human,EZ_102,2017-10-17,10:13:28,Exp,1,22,11,TopRight,BottomRight,BottomLeft,TopRight,BottomRight,BottomLeft,768,739,1097,1,1,1,1,0,BASE
Human,EZ_102,2017-10-17,10:13:33,Exp,1,23,20,BottomRight,TopRight,TopLeft,BottomRight,TopRight,TopLeft,893,825,1048,1,1,1,1,0,BASE
Human,EZ_102,2017-10-17,10:13:39,Exp,1,24,5,TopLeft,BottomRight,BottomLeft,TopLeft,BottomRight,TopLeft,1026,665,758,1,1,0,0,0,PROBE
Human,EZ_102,2017-10-17,10:13:47,Exp,1,25,6,TopRight,TopLeft,BottomLeft,TopRight,TopLeft,BottomLeft,901,741,1120,1,1,1,1,0,BASE
Human,EZ_102,2017-10-17,10:13:54,Exp,1,26,15,BottomLeft,TopRight,BottomRight,BottomLeft,TopRight,BottomRight,888,678,1039,1,1,1,1,0,PROBE
Human,EZ_102,2017-10-17,10:14:00,Exp,1,27,20,BottomRight,TopRight,TopLeft,BottomRight,TopRight,TopLeft,1090,768,641,1,1,1,1,0,PROBE
Human,EZ_102,2017-10-17,10:14:05,Exp,1,28,16,BottomLeft,BottomRight,TopLeft,BottomLeft,BottomRight,TopLeft,767,543,676,1,1,1,1,0,PROBE
Human,EZ_102,2017-10-17,10:14:10,Exp,1,29,4,TopLeft,BottomRight,TopRight,TopLeft,BottomRight,TopRight,698,785,710,1,1,1,1,0,PROBE
Human,EZ_102,2017-10-17,10:14:15,Exp,1,30,0,TopLeft,TopRight,BottomLeft,TopLeft,TopRight,BottomLeft,623,614,1147,1,1,1,1,0,PROBE
Human,EZ_102,2017-10-17,10:14:22,Exp,1,31,9,TopRight,BottomLeft,BottomRight,TopRight,BottomLeft,BottomRight,1341,689,2181,1,1,1,1,0,BASE
Human,EZ_102,2017-10-17,10:14:28,Exp,1,32,21,BottomRight,TopRight,BottomLeft,BottomRight,TopRight,BottomLeft,704,717,1078,1,1,1,1,0,PROBE
Human,EZ_102,2017-10-17,10:14:33,Exp,1,33,23,BottomRight,BottomLeft,TopRight,BottomRight,BottomLeft,TopRight,910,982,718,1,1,1,1,0,BASE
Human,EZ_102,2017-10-17,10:14:39,Exp,1,34,22,BottomRight,BottomLeft,TopLeft,BottomRight,BottomLeft,TopLeft,855,796,805,1,1,1,1,0,PROBE
Human,EZ_102,2017-10-17,10:14:45,Exp,1,35,19,BottomRight,TopLeft,BottomLeft,BottomRight,TopLeft,BottomLeft,781,741,1061,1,1,1,1,0,BASE
Human,EZ_102,2017-10-17,10:14:51,Exp,1,36,3,TopLeft,BottomLeft,BottomRight,TopLeft,BottomLeft,BottomRight,825,844,1143,1,1,1,1,0,BASE
Human,EZ_102,2017-10-17,10:14:57,Exp,1,37,1,TopLeft,TopRight,BottomRight,TopLeft,TopRight,BottomRight,718,990,1092,1,1,1,1,0,PROBE
Human,EZ_102,2017-10-17,10:15:02,Exp,1,38,18,BottomRight,TopLeft,TopRight,BottomRight,TopLeft,TopRight,939,670,792,1,1,1,1,0,PROBE
Human,EZ_102,2017-10-17,10:15:08,Exp,1,39,17,BottomLeft,BottomRight,TopRight,BottomLeft,BottomRight,TopRight,828,739,753,1,1,1,1,0,BASE
Human,EZ_102,2017-10-17,10:15:13,Exp,1,40,8,TopRight,BottomLeft,TopLeft,TopRight,BottomLeft,TopLeft,1414,720,859,1,1,1,1,0,PROBE
Human,EZ_102,2017-10-17,10:15:19,Exp,1,41,7,TopRight,TopLeft,BottomRight,TopRight,TopLeft,BottomRight,1082,672,1042,1,1,1,1,0,PROBE
Human,EZ_102,2017-10-17,10:15:24,Exp,1,42,10,TopRight,BottomRight,TopLeft,TopRight,BottomRight,TopLeft,847,913,785,1,1,1,1,0,BASE
Human,EZ_102,2017-10-17,10:15:30,Exp,1,43,12,BottomLeft,TopLeft,TopRight,BottomLeft,TopLeft,TopRight,1036,693,650,1,1,1,1,0,BASE
Human,EZ_102,2017-10-17,10:15:35,Exp,1,44,2,TopLeft,BottomLeft,TopRight,TopLeft,BottomLeft,TopRight,1143,724,691,1,1,1,1,0,BASE
Human,EZ_102,2017-10-17,10:15:40,Exp,1,45,14,BottomLeft,TopRight,TopLeft,BottomLeft,TopRight,TopLeft,661,793,823,1,1,1,1,0,BASE
Human,EZ_102,2017-10-17,10:15:46,Exp,1,46,5,TopLeft,BottomRight,BottomLeft,TopLeft,BottomRight,BottomLeft,726,890,1122,1,1,1,1,0,BASE
Human,EZ_102,2017-10-17,10:15:51,Exp,1,47,11,TopRight,BottomRight,BottomLeft,TopRight,BottomRight,BottomLeft,762,848,1090,1,1,1,1,0,BASE
Human,EZ_102,2017-10-17,10:15:57,Exp,1,48,13,BottomLeft,TopLeft,BottomRight,BottomLeft,TopLeft,BottomRight,929,642,1048,1,1,1,1,0,PROBE
Human,EZ_102,2017-10-17,10:16:02,Exp,2,1,16,BottomLeft,BottomRight,TopLeft,BottomLeft,BottomRight,TopLeft,1008,716,718,1,1,1,1,0,PROBE
Human,EZ_102,2017-10-17,10:16:08,Exp,2,2,11,TopRight,BottomRight,BottomLeft,TopRight,BottomRight,BottomLeft,861,823,1328,1,1,1,1,0,PROBE
Human,EZ_102,2017-10-17,10:16:14,Exp,2,3,19,BottomRight,TopLeft,BottomLeft,BottomRight,TopLeft,BottomLeft,839,622,1615,1,1,1,1,0,BASE
Human,EZ_102,2017-10-17,10:16:19,Exp,2,4,5,TopLeft,BottomRight,BottomLeft,TopLeft,BottomRight,BottomLeft,758,702,1157,1,1,1,1,0,BASE
Human,EZ_102,2017-10-17,10:16:24,Exp,2,5,4,TopLeft,BottomRight,TopRight,TopLeft,BottomRight,TopRight,741,690,755,1,1,1,1,0,BASE
Human,EZ_102,2017-10-17,10:16:31,Exp,2,6,0,TopLeft,TopRight,BottomLeft,TopLeft,TopRight,BottomLeft,828,1854,1157,1,1,1,1,0,BASE
Human,EZ_102,2017-10-17,10:16:37,Exp,2,7,14,BottomLeft,TopRight,TopLeft,BottomLeft,TopRight,TopLeft,874,726,1073,1,1,1,1,0,BASE
Human,EZ_102,2017-10-17,10:16:42,Exp,2,8,2,TopLeft,BottomLeft,TopRight,TopLeft,BottomLeft,TopRight,702,688,731,1,1,1,1,0,PROBE
Human,EZ_102,2017-10-17,10:16:47,Exp,2,9,21,BottomRight,TopRight,BottomLeft,BottomRight,TopRight,BottomLeft,722,718,1080,1,1,1,1,0,PROBE
Human,EZ_102,2017-10-17,10:16:52,Exp,2,10,10,TopRight,BottomRight,TopLeft,TopRight,BottomRight,TopLeft,727,841,736,1,1,1,1,0,BASE
Human,EZ_102,2017-10-17,10:16:58,Exp,2,11,1,TopLeft,TopRight,BottomRight,TopLeft,TopRight,BottomRight,766,803,1159,1,1,1,1,0,PROBE
Human,EZ_102,2017-10-17,10:17:03,Exp,2,12,9,TopRight,BottomLeft,BottomRight,TopRight,BottomLeft,BottomRight,755,786,1071,1,1,1,1,0,PROBE
Human,EZ_102,2017-10-17,10:17:09,Exp,2,13,13,BottomLeft,TopLeft,BottomRight,BottomLeft,TopLeft,BottomRight,1021,732,990,1,1,1,1,0,PROBE
Human,EZ_102,2017-10-17,10:17:14,Exp,2,14,17,BottomLeft,BottomRight,TopRight,BottomLeft,BottomRight,TopRight,898,788,720,1,1,1,1,0,BASE
Human,EZ_102,2017-10-17,10:17:21,Exp,2,15,3,TopLeft,BottomLeft,BottomRight,TopLeft,BottomLeft,BottomRight,860,782,1517,1,1,1,1,0,PROBE
Human,EZ_102,2017-10-17,10:17:26,Exp,2,16,23,BottomRight,BottomLeft,TopRight,BottomRight,BottomLeft,TopRight,847,792,724,1,1,1,1,0,BASE
Human,EZ_102,2017-10-17,10:17:31,Exp,2,17,7,TopRight,TopLeft,BottomRight,TopRight,TopLeft,BottomRight,845,738,1096,1,1,1,1,0,PROBE
Human,EZ_102,2017-10-17,10:17:37,Exp,2,18,15,BottomLeft,TopRight,BottomRight,BottomLeft,TopRight,BottomRight,876,722,1105,1,1,1,1,0,BASE
Human,EZ_102,2017-10-17,10:17:42,Exp,2,19,20,BottomRight,TopRight,TopLeft,BottomRight,TopRight,TopLeft,889,783,1056,1,1,1,1,0,PROBE
Human,EZ_102,2017-10-17,10:17:47,Exp,2,20,12,BottomLeft,TopLeft,TopRight,BottomLeft,TopLeft,TopRight,761,674,631,1,1,1,1,0,BASE
Human,EZ_102,2017-10-17,10:17:52,Exp,2,21,8,TopRight,BottomLeft,TopLeft,TopRight,BottomLeft,TopLeft,624,694,616,1,1,1,1,0,BASE
Human,EZ_102,2017-10-17,10:17:57,Exp,2,22,18,BottomRight,TopLeft,TopRight,BottomRight,TopLeft,TopRight,790,723,756,1,1,1,1,0,PROBE
Human,EZ_102,2017-10-17,10:18:03,Exp,2,23,22,BottomRight,BottomLeft,TopLeft,BottomRight,BottomLeft,TopLeft,892,982,695,1,1,1,1,0,BASE
Human,EZ_102,2017-10-17,10:18:08,Exp,2,24,6,TopRight,TopLeft,BottomLeft,TopRight,TopLeft,BottomLeft,792,651,899,1,1,1,1,0,PROBE
Human,EZ_102,2017-10-17,10:18:13,Exp,2,25,19,BottomRight,TopLeft,BottomLeft,BottomRight,TopLeft,BottomLeft,826,601,1105,1,1,1,1,0,PROBE
Human,EZ_102,2017-10-17,10:18:19,Exp,2,26,3,TopLeft,BottomLeft,BottomRight,TopLeft,BottomLeft,BottomRight,1131,729,1183,1,1,1,1,0,BASE
Human,EZ_102,2017-10-17,10:18:24,Exp,2,27,14,BottomLeft,TopRight,TopLeft,BottomLeft,TopRight,TopLeft,1069,660,985,1,1,1,1,0,BASE
Human,EZ_102,2017-10-17,10:18:30,Exp,2,28,6,TopRight,TopLeft,BottomLeft,TopRight,TopLeft,BottomLeft,873,751,1072,1,1,1,1,0,PROBE
Human,EZ_102,2017-10-17,10:18:35,Exp,2,29,20,BottomRight,TopRight,TopLeft,BottomRight,TopRight,TopLeft,860,710,737,1,1,1,1,0,BASE
Human,EZ_102,2017-10-17,10:18:40,Exp,2,30,4,TopLeft,BottomRight,TopRight,TopLeft,BottomRight,TopRight,979,696,720,1,1,1,1,0,PROBE
Human,EZ_102,2017-10-17,10:18:46,Exp,2,31,21,BottomRight,TopRight,BottomLeft,BottomRight,TopRight,BottomLeft,924,677,1078,1,1,1,1,0,PROBE
Human,EZ_102,2017-10-17,10:18:51,Exp,2,32,11,TopRight,BottomRight,BottomLeft,TopRight,BottomRight,BottomLeft,721,703,1099,1,1,1,1,0,PROBE
Human,EZ_102,2017-10-17,10:18:56,Exp,2,33,18,BottomRight,TopLeft,TopRight,BottomRight,TopLeft,TopRight,744,684,731,1,1,1,1,0,BASE
Human,EZ_102,2017-10-17,10:19:01,Exp,2,34,22,BottomRight,BottomLeft,TopLeft,BottomRight,BottomLeft,TopLeft,892,716,542,1,1,1,1,0,PROBE
Human,EZ_102,2017-10-17,10:19:07,Exp,2,35,1,TopLeft,TopRight,BottomRight,TopLeft,TopRight,BottomRight,723,690,1204,1,1,1,1,0,BASE
Human,EZ_102,2017-10-17,10:19:12,Exp,2,36,16,BottomLeft,BottomRight,TopLeft,BottomLeft,BottomRight,TopLeft,891,1149,705,1,1,1,1,0,BASE
Human,EZ_102,2017-10-17,10:19:18,Exp,2,37,5,TopLeft,BottomRight,BottomLeft,TopLeft,BottomRight,BottomLeft,920,682,1080,1,1,1,1,0,PROBE
Human,EZ_102,2017-10-17,10:19:23,Exp,2,38,2,TopLeft,BottomLeft,TopRight,TopLeft,BottomLeft,TopRight,731,723,845,1,1,1,1,0,PROBE
Human,EZ_102,2017-10-17,10:19:28,Exp,2,39,7,TopRight,TopLeft,BottomRight,TopRight,TopLeft,BottomRight,946,672,995,1,1,1,1,0,PROBE
Human,EZ_102,2017-10-17,10:19:34,Exp,2,40,12,BottomLeft,TopLeft,TopRight,BottomLeft,TopLeft,TopRight,830,654,859,1,1,1,1,0,BASE
Human,EZ_102,2017-10-17,10:19:39,Exp,2,41,8,TopRight,BottomLeft,TopLeft,TopRight,BottomLeft,TopLeft,1240,762,684,1,1,1,1,0,BASE
Human,EZ_102,2017-10-17,10:19:44,Exp,2,42,10,TopRight,BottomRight,TopLeft,TopRight,BottomRight,TopLeft,617,689,648,1,1,1,1,0,BASE
Human,EZ_102,2017-10-17,10:19:49,Exp,2,43,0,TopLeft,TopRight,BottomLeft,TopLeft,TopRight,BottomLeft,661,689,1091,1,1,1,1,0,BASE
Human,EZ_102,2017-10-17,10:19:54,Exp,2,44,23,BottomRight,BottomLeft,TopRight,BottomRight,BottomLeft,TopRight,823,861,601,1,1,1,1,0,BASE
Human,EZ_102,2017-10-17,10:20:00,Exp,2,45,15,BottomLeft,TopRight,BottomRight,BottomLeft,TopRight,BottomRight,836,696,1046,1,1,1,1,0,PROBE
Human,EZ_102,2017-10-17,10:20:05,Exp,2,46,9,TopRight,BottomLeft,BottomRight,TopRight,BottomLeft,BottomRight,788,712,1060,1,1,1,1,0,PROBE
Human,EZ_102,2017-10-17,10:20:11,Exp,2,47,13,BottomLeft,TopLeft,BottomRight,BottomLeft,TopLeft,BottomRight,1040,691,924,1,1,1,1,0,PROBE
Human,EZ_102,2017-10-17,10:20:16,Exp,2,48,17,BottomLeft,BottomRight,TopRight,BottomLeft,BottomRight,TopRight,947,970,700,1,1,1,1,0,BASE
Human,EZ_102,2017-10-17,10:20:23,Exp,3,1,19,BottomRight,TopLeft,BottomLeft,BottomRight,TopLeft,BottomLeft,1190,1239,920,1,1,1,1,0,BASE
Human,EZ_102,2017-10-17,10:20:28,Exp,3,2,20,BottomRight,TopRight,TopLeft,BottomRight,TopRight,TopLeft,1014,704,706,1,1,1,1,0,PROBE
Human,EZ_102,2017-10-17,10:20:34,Exp,3,3,21,BottomRight,TopRight,BottomLeft,BottomRight,TopRight,BottomLeft,897,773,1081,1,1,1,1,0,BASE
Human,EZ_102,2017-10-17,10:20:40,Exp,3,4,11,TopRight,BottomRight,BottomLeft,TopRight,BottomRight,BottomLeft,878,890,1103,1,1,1,1,0,PROBE
Human,EZ_102,2017-10-17,10:20:45,Exp,3,5,12,BottomLeft,TopLeft,TopRight,BottomLeft,TopLeft,TopRight,840,817,758,1,1,1,1,0,BASE
Human,EZ_102,2017-10-17,10:20:51,Exp,3,6,6,TopRight,TopLeft,BottomLeft,TopRight,TopLeft,BottomLeft,790,721,1064,1,1,1,1,0,PROBE
Human,EZ_102,2017-10-17,10:20:56,Exp,3,7,13,BottomLeft,TopLeft,BottomRight,BottomLeft,TopLeft,BottomRight,952,717,1056,1,1,1,1,0,PROBE
Human,EZ_102,2017-10-17,10:21:01,Exp,3,8,2,TopLeft,BottomLeft,TopRight,TopLeft,BottomLeft,TopRight,779,725,702,1,1,1,1,0,BASE
Human,EZ_102,2017-10-17,10:21:07,Exp,3,9,15,BottomLeft,TopRight,BottomRight,BottomLeft,TopRight,BottomRight,904,704,1112,1,1,1,1,0,BASE
Human,EZ_102,2017-10-17,10:21:12,Exp,3,10,7,TopRight,TopLeft,BottomRight,TopRight,TopLeft,BottomRight,730,760,1180,1,1,1,1,0,BASE
Human,EZ_102,2017-10-17,10:21:18,Exp,3,11,9,TopRight,BottomLeft,BottomRight,TopRight,BottomLeft,BottomRight,827,774,1133,1,1,1,1,0,BASE
Human,EZ_102,2017-10-17,10:21:23,Exp,3,12,0,TopLeft,TopRight,BottomLeft,TopLeft,TopRight,BottomLeft,724,693,1097,1,1,1,1,0,BASE
Human,EZ_102,2017-10-17,10:21:28,Exp,3,13,22,BottomRight,BottomLeft,TopLeft,BottomRight,BottomLeft,TopLeft,1092,695,765,1,1,1,1,0,PROBE
Human,EZ_102,2017-10-17,10:21:33,Exp,3,14,16,BottomLeft,BottomRight,TopLeft,BottomLeft,BottomRight,TopLeft,760,759,774,1,1,1,1,0,BASE
Human,EZ_102,2017-10-17,10:21:38,Exp,3,15,10,TopRight,BottomRight,TopLeft,TopRight,BottomRight,TopLeft,722,718,804,1,1,1,1,0,PROBE
Human,EZ_102,2017-10-17,10:21:44,Exp,3,16,18,BottomRight,TopLeft,TopRight,BottomRight,TopLeft,TopRight,1359,710,1027,1,1,1,1,0,BASE
Human,EZ_102,2017-10-17,10:21:51,Exp,3,17,4,TopLeft,BottomRight,TopRight,TopLeft,BottomRight,TopRight,894,717,1676,1,1,1,1,0,PROBE
Human,EZ_102,2017-10-17,10:21:56,Exp,3,18,14,BottomLeft,TopRight,TopLeft,BottomLeft,TopRight,TopLeft,1051,693,861,1,1,1,1,0,BASE
Human,EZ_102,2017-10-17,10:22:01,Exp,3,19,1,TopLeft,TopRight,BottomRight,TopLeft,TopRight,BottomRight,717,669,1094,1,1,1,1,0,PROBE
Human,EZ_102,2017-10-17,10:22:08,Exp,3,20,17,BottomLeft,BottomRight,TopRight,BottomLeft,BottomRight,TopRight,1000,2020,744,1,1,1,1,0,PROBE
Human,EZ_102,2017-10-17,10:22:13,Exp,3,21,8,TopRight,BottomLeft,TopLeft,TopRight,BottomLeft,TopLeft,724,860,726,1,1,1,1,0,BASE
Human,EZ_102,2017-10-17,10:22:20,Exp,3,22,3,TopLeft,BottomLeft,BottomRight,TopLeft,BottomLeft,BottomRight,1834,886,1115,1,1,1,1,0,PROBE
Human,EZ_102,2017-10-17,10:22:25,Exp,3,23,23,BottomRight,BottomLeft,TopRight,BottomRight,BottomLeft,TopRight,952,855,731,1,1,1,1,0,PROBE
Human,EZ_102,2017-10-17,10:22:31,Exp,3,24,5,TopLeft,BottomRight,BottomLeft,TopLeft,BottomRight,BottomLeft,1034,728,988,1,1,1,1,0,PROBE
Human,EZ_102,2017-10-17,10:22:36,Exp,3,25,5,TopLeft,BottomRight,BottomLeft,TopLeft,BottomRight,BottomLeft,748,720,1133,1,1,1,1,0,BASE
Human,EZ_102,2017-10-17,10:22:42,Exp,3,26,3,TopLeft,BottomLeft,BottomRight,TopLeft,BottomLeft,BottomRight,691,839,787,1,1,1,1,0,BASE
Human,EZ_102,2017-10-17,10:22:48,Exp,3,27,18,BottomRight,TopLeft,TopRight,BottomRight,TopLeft,TopRight,1063,672,1069,1,1,1,1,0,PROBE
Human,EZ_102,2017-10-17,10:22:53,Exp,3,28,1,TopLeft,TopRight,BottomRight,TopLeft,TopRight,BottomRight,820,718,955,1,1,1,1,0,PROBE
Human,EZ_102,2017-10-17,10:22:59,Exp,3,29,23,BottomRight,BottomLeft,TopRight,BottomRight,BottomLeft,TopRight,1640,768,685,1,1,1,1,0,PROBE
Human,EZ_102,2017-10-17,10:23:06,Exp,3,30,19,BottomRight,TopLeft,BottomLeft,BottomRight,TopLeft,BottomLeft,719,681,2182,1,1,1,1,0,PROBE
Human,EZ_102,2017-10-17,10:23:11,Exp,3,31,7,TopRight,TopLeft,BottomRight,TopRight,TopLeft,BottomRight,727,727,1259,1,1,1,1,0,BASE
Human,EZ_102,2017-10-17,10:23:17,Exp,3,32,14,BottomLeft,TopRight,TopLeft,BottomLeft,TopRight,TopLeft,1050,801,1110,1,1,1,1,0,BASE
Human,EZ_102,2017-10-17,10:23:24,Exp,3,33,9,TopRight,BottomLeft,BottomRight,TopRight,BottomLeft,BottomRight,1793,1060,1243,1,1,1,1,0,PROBE
Human,EZ_102,2017-10-17,10:23:30,Exp,3,34,20,BottomRight,TopRight,TopLeft,BottomRight,TopRight,TopLeft,928,679,1843,1,1,1,1,0,BASE
Human,EZ_102,2017-10-17,10:23:36,Exp,3,35,2,TopLeft,BottomLeft,TopRight,TopLeft,BottomLeft,TopRight,815,834,906,1,1,1,1,0,BASE
Human,EZ_102,2017-10-17,10:23:40,Exp,3,36,10,TopRight,BottomRight,TopLeft,TopRight,BottomRight,TopLeft,795,697,737,1,1,1,1,0,PROBE
Human,EZ_102,2017-10-17,10:23:46,Exp,3,37,12,BottomLeft,TopLeft,TopRight,BottomLeft,TopLeft,TopRight,1398,511,1183,1,1,1,1,0,PROBE
Human,EZ_102,2017-10-17,10:23:52,Exp,3,38,0,TopLeft,TopRight,BottomLeft,TopLeft,TopRight,BottomLeft,804,687,1109,1,1,1,1,0,PROBE
Human,EZ_102,2017-10-17,10:23:57,Exp,3,39,13,BottomLeft,TopLeft,BottomRight,BottomLeft,TopLeft,BottomRight,834,665,1142,1,1,1,1,0,PROBE
Human,EZ_102,2017-10-17,10:24:02,Exp,3,40,8,TopRight,BottomLeft,TopLeft,TopRight,BottomLeft,TopLeft,681,602,999,1,1,1,1,0,PROBE
Human,EZ_102,2017-10-17,10:24:07,Exp,3,41,4,TopLeft,BottomRight,TopRight,TopLeft,BottomRight,TopRight,710,578,808,1,1,1,1,0,BASE
Human,EZ_102,2017-10-17,10:24:12,Exp,3,42,15,BottomLeft,TopRight,BottomRight,BottomLeft,TopRight,BottomRight,775,536,823,1,1,1,1,0,BASE
Human,EZ_102,2017-10-17,10:24:18,Exp,3,43,21,BottomRight,TopRight,BottomLeft,BottomRight,TopRight,BottomLeft,674,916,802,1,1,1,1,0,BASE
Human,EZ_102,2017-10-17,10:24:24,Exp,3,44,22,BottomRight,BottomLeft,TopLeft,BottomRight,BottomLeft,TopLeft,779,1310,1041,1,1,1,1,0,BASE
Human,EZ_102,2017-10-17,10:24:29,Exp,3,45,6,TopRight,TopLeft,BottomLeft,TopRight,TopLeft,BottomLeft,993,476,874,1,1,1,1,0,PROBE
Human,EZ_102,2017-10-17,10:24:34,Exp,3,46,16,BottomLeft,BottomRight,TopLeft,BottomLeft,BottomRight,TopLeft,690,752,714,1,1,1,1,0,PROBE
Human,EZ_102,2017-10-17,10:24:39,Exp,3,47,17,BottomLeft,BottomRight,TopRight,BottomLeft,BottomRight,TopRight,604,535,580,1,1,1,1,0,BASE
Human,EZ_102,2017-10-17,10:24:44,Exp,3,48,11,TopRight,BottomRight,BottomLeft,TopRight,BottomRight,BottomLeft,644,634,972,1,1,1,1,0,BASE
Human,EZ_102,2017-10-17,10:24:49,Exp,4,1,10,TopRight,BottomRight,TopLeft,TopRight,BottomRight,TopLeft,446,613,890,1,1,1,1,0,PROBE
Human,EZ_102,2017-10-17,10:24:55,Exp,4,2,5,TopLeft,BottomRight,BottomLeft,TopLeft,BottomRight,BottomLeft,1471,432,750,1,1,1,1,0,PROBE
Human,EZ_102,2017-10-17,10:24:59,Exp,4,3,12,BottomLeft,TopLeft,TopRight,BottomLeft,TopLeft,TopRight,514,842,748,1,1,1,1,0,BASE
Human,EZ_102,2017-10-17,10:25:05,Exp,4,4,19,BottomRight,TopLeft,BottomLeft,BottomRight,TopLeft,BottomLeft,737,874,808,1,1,1,1,0,BASE
Human,EZ_102,2017-10-17,10:25:11,Exp,4,5,0,TopLeft,TopRight,BottomLeft,TopLeft,TopRight,BottomLeft,1535,1041,765,1,1,1,1,0,PROBE
Human,EZ_102,2017-10-17,10:25:16,Exp,4,6,3,TopLeft,BottomLeft,BottomRight,TopLeft,BottomLeft,BottomRight,1137,488,896,1,1,1,1,0,BASE
Human,EZ_102,2017-10-17,10:25:22,Exp,4,7,17,BottomLeft,BottomRight,TopRight,BottomLeft,BottomRight,TopRight,1204,513,886,1,1,1,1,0,BASE
Human,EZ_102,2017-10-17,10:25:27,Exp,4,8,6,TopRight,TopLeft,BottomLeft,TopRight,TopLeft,BottomLeft,657,639,958,1,1,1,1,0,BASE
Human,EZ_102,2017-10-17,10:25:32,Exp,4,9,22,BottomRight,BottomLeft,TopLeft,BottomRight,BottomLeft,TopLeft,557,892,885,1,1,1,1,0,BASE
Human,EZ_102,2017-10-17,10:25:37,Exp,4,10,15,BottomLeft,TopRight,BottomRight,BottomLeft,TopRight,BottomRight,730,498,987,1,1,1,1,0,PROBE
Human,EZ_102,2017-10-17,10:25:42,Exp,4,11,7,TopRight,TopLeft,BottomRight,TopRight,TopLeft,BottomRight,467,1351,854,1,1,1,1,0,PROBE
Human,EZ_102,2017-10-17,10:25:47,Exp,4,12,16,BottomLeft,BottomRight,TopLeft,BottomLeft,BottomRight,TopLeft,640,686,701,1,1,1,1,0,BASE
Human,EZ_102,2017-10-17,10:25:52,Exp,4,13,23,BottomRight,BottomLeft,TopRight,BottomRight,BottomLeft,TopRight,570,678,715,1,1,1,1,0,BASE
Human,EZ_102,2017-10-17,10:25:55,Exp,4,14,2,TopLeft,BottomLeft,TopRight,BottomLeft,NA,NA,742,NA,NA,0,NA,NA,0,0,BASE
Human,EZ_102,2017-10-17,10:26:03,Exp,4,15,9,TopRight,BottomLeft,BottomRight,TopRight,BottomLeft,BottomRight,500,618,1068,1,1,1,1,0,BASE
Human,EZ_102,2017-10-17,10:26:08,Exp,4,16,8,TopRight,BottomLeft,TopLeft,TopRight,BottomLeft,TopLeft,1229,687,818,1,1,1,1,0,PROBE
Human,EZ_102,2017-10-17,10:26:11,Exp,4,17,20,BottomRight,TopRight,TopLeft,TopRight,NA,NA,816,NA,NA,0,NA,NA,0,0,PROBE
Human,EZ_102,2017-10-17,10:26:19,Exp,4,18,1,TopLeft,TopRight,BottomRight,TopLeft,TopRight,BottomRight,1141,677,1019,1,1,1,1,0,PROBE
Human,EZ_102,2017-10-17,10:26:25,Exp,4,19,14,BottomLeft,TopRight,TopLeft,BottomLeft,TopRight,TopLeft,1187,1160,661,1,1,1,1,0,PROBE
Human,EZ_102,2017-10-17,10:26:31,Exp,4,20,18,BottomRight,TopLeft,TopRight,BottomRight,TopLeft,TopRight,1012,854,694,1,1,1,1,0,PROBE
Human,EZ_102,2017-10-17,10:26:37,Exp,4,21,13,BottomLeft,TopLeft,BottomRight,BottomLeft,TopLeft,BottomRight,1078,682,800,1,1,1,1,0,PROBE
Human,EZ_102,2017-10-17,10:26:42,Exp,4,22,21,BottomRight,TopRight,BottomLeft,BottomRight,TopRight,BottomLeft,706,773,733,1,1,1,1,0,BASE
Human,EZ_102,2017-10-17,10:26:48,Exp,4,23,11,TopRight,BottomRight,BottomLeft,TopRight,BottomRight,BottomLeft,1384,511,961,1,1,1,1,0,PROBE
Human,EZ_102,2017-10-17,10:26:53,Exp,4,24,4,TopLeft,BottomRight,TopRight,TopLeft,BottomRight,TopRight,829,639,1012,1,1,1,1,0,BASE
Human,EZ_102,2017-10-17,10:26:59,Exp,4,25,21,BottomRight,TopRight,BottomLeft,BottomRight,TopRight,BottomLeft,1146,660,691,1,1,1,1,0,PROBE
Human,EZ_102,2017-10-17,10:27:04,Exp,4,26,3,TopLeft,BottomLeft,BottomRight,TopLeft,BottomLeft,BottomRight,757,596,755,1,1,1,1,0,PROBE
Human,EZ_102,2017-10-17,10:27:10,Exp,4,27,20,BottomRight,TopRight,TopLeft,BottomRight,TopRight,TopLeft,909,598,1175,1,1,1,1,0,PROBE
Human,EZ_102,2017-10-17,10:27:15,Exp,4,28,16,BottomLeft,BottomRight,TopLeft,BottomLeft,BottomRight,TopLeft,729,786,615,1,1,1,1,0,BASE
Human,EZ_102,2017-10-17,10:27:21,Exp,4,29,7,TopRight,TopLeft,BottomRight,TopRight,TopLeft,BottomRight,848,691,1117,1,1,1,1,0,BASE
Human,EZ_102,2017-10-17,10:27:27,Exp,4,30,12,BottomLeft,TopLeft,TopRight,BottomLeft,TopLeft,TopRight,960,1542,766,1,1,1,1,0,PROBE
Human,EZ_102,2017-10-17,10:27:31,Exp,4,31,22,BottomRight,BottomLeft,TopLeft,BottomRight,BottomLeft,TopLeft,726,685,728,1,1,1,1,0,BASE
Human,EZ_102,2017-10-17,10:27:36,Exp,4,32,1,TopLeft,TopRight,BottomRight,TopLeft,TopRight,BottomRight,653,632,1152,1,1,1,1,0,PROBE
Human,EZ_102,2017-10-17,10:27:43,Exp,4,33,15,BottomLeft,TopRight,BottomRight,BottomLeft,TopRight,BottomRight,981,640,1566,1,1,1,1,0,BASE
Human,EZ_102,2017-10-17,10:27:48,Exp,4,34,14,BottomLeft,TopRight,TopLeft,BottomLeft,TopRight,TopLeft,676,589,740,1,1,1,1,0,BASE
Human,EZ_102,2017-10-17,10:27:54,Exp,4,35,13,BottomLeft,TopLeft,BottomRight,BottomLeft,TopLeft,BottomRight,1073,688,1041,1,1,1,1,0,PROBE
Human,EZ_102,2017-10-17,10:27:59,Exp,4,36,8,TopRight,BottomLeft,TopLeft,TopRight,BottomLeft,TopLeft,918,705,671,1,1,1,1,0,BASE
